aX,aY,aZ,gX,gY,gZ
-0.423,-0.599,2.185,1.770,16.785,41.504
-0.506,-0.811,2.422,-2.563,36.621,63.049
-0.535,-0.944,2.555,-6.775,63.477,89.172
-0.593,-0.992,2.562,-4.089,92.163,116.516
-0.667,-0.970,2.421,4.944,120.728,143.250
-0.717,-0.904,2.165,14.832,146.057,169.128
-0.787,-0.834,1.937,20.081,165.405,193.420
-0.838,-0.756,1.822,19.409,178.101,216.675
-0.909,-0.667,1.770,17.883,187.378,239.258
-1.016,-0.596,1.700,16.113,198.547,261.169
-1.086,-0.576,1.624,12.817,212.402,281.921
-1.150,-0.521,1.562,4.944,226.685,303.162
-1.220,-0.465,1.506,2.808,240.967,325.745
-1.322,-0.414,1.458,7.935,255.249,348.450
-1.402,-0.341,1.421,16.235,269.043,369.568
-1.437,-0.198,1.312,28.748,282.043,388.977
-1.485,0.013,1.065,53.406,294.495,408.691
-1.508,0.210,0.772,82.886,299.255,424.316
-1.534,0.483,0.572,98.694,293.701,430.908
-1.609,0.835,0.336,113.220,281.982,431.458
-1.524,1.189,-0.030,132.446,269.043,430.603
-1.440,1.407,-0.252,151.978,242.920,425.720
-1.458,1.503,-0.110,149.414,203.186,409.302
-1.479,1.475,0.192,141.357,165.833,386.902
-1.555,1.377,0.478,146.729,146.606,372.009
-1.736,1.356,0.611,154.541,147.705,369.446
-1.867,1.414,0.552,159.363,158.630,374.878
-1.966,1.571,0.426,158.203,167.419,381.714
-2.086,1.797,0.240,162.476,167.542,386.780
-2.084,2.084,0.002,172.668,157.776,389.160
-1.990,2.432,-0.279,177.185,139.099,384.949
-1.835,2.869,-0.538,167.664,112.183,370.422
-1.643,3.389,-0.684,148.560,76.294,343.933
-1.445,4.000,-0.552,136.719,32.837,285.767
-1.068,4.000,-0.167,145.203,-18.799,56.824
-0.953,3.336,-0.052,166.626,-46.143,-57.007
-1.560,2.899,0.136,156.494,-55.603,-35.950
-1.766,3.269,0.091,93.628,-52.795,-5.615
-1.616,3.762,-0.036,-0.854,-43.091,-11.536
-1.524,3.999,-0.184,-67.993,-41.321,-57.495
-1.517,3.857,-0.199,-105.286,-60.913,-130.432
-1.593,3.416,0.017,-119.690,-98.328,-210.205
-1.732,2.959,0.409,-117.188,-132.935,-277.893
-1.796,2.698,0.692,-92.102,-148.560,-327.759
-1.809,2.621,0.686,-42.236,-146.118,-366.089
-1.812,2.687,0.426,9.827,-137.878,-404.602
-1.900,2.815,0.077,45.776,-136.230,-452.148
-2.105,2.714,-0.191,62.012,-146.851,-509.521
-2.375,2.415,-0.298,49.194,-169.373,-571.472
-2.636,1.919,-0.218,11.902,-201.355,-626.648
-2.816,1.260,0.037,-38.025,-236.938,-663.269
-2.846,0.614,0.469,-87.830,-269.958,-674.011
-2.728,0.183,0.977,-121.155,-292.480,-658.020
-2.491,0.034,1.465,-130.249,-298.035,-621.948
-2.409,0.137,1.793,-116.882,-285.828,-583.984
-2.573,0.156,1.908,-78.186,-256.714,-562.561
-2.643,-0.088,1.818,-27.649,-218.872,-563.660
-2.501,-0.578,1.649,23.621,-184.509,-572.876
-2.435,-1.200,1.416,75.134,-156.677,-567.627
-2.333,-1.827,1.125,102.478,-131.592,-536.011
-1.968,-2.295,0.861,84.900,-114.319,-475.952
-1.649,-2.466,0.785,31.433,-111.877,-396.301
-1.481,-2.296,0.930,-32.043,-121.582,-306.274
-1.370,-1.883,1.168,-79.834,-133.606,-218.811
-1.280,-1.401,1.438,-103.821,-139.709,-147.827
-1.192,-0.941,1.710,-108.643,-136.475,-99.182
-1.121,-0.503,1.959,-99.426,-125.183,-70.618
-1.029,-0.140,2.053,-74.463,-104.614,-60.913
-0.856,0.131,2.039,-38.269,-78.186,-69.092
-0.860,0.105,1.832,-5.432,-50.781,-89.294
-0.683,0.189,1.748,5.859,-25.024,-113.525
-0.620,-0.322,1.358,48.157,-13.184,-124.634
-0.537,-0.453,1.281,41.992,-13.855,-125.000
-0.438,-0.695,1.208,37.354,-16.846,-114.380
-0.336,-0.849,1.218,33.813,-18.005,-93.994
-0.198,-0.815,1.187,22.583,-14.954,-65.430
-0.063,-0.660,1.104,19.104,-11.536,-30.701
-0.013,-0.402,1.075,14.099,-9.399,0.671
0.029,-0.092,1.097,4.761,-7.996,21.606
0.086,0.185,1.098,-0.671,-5.249,32.227
0.107,0.448,1.091,-1.099,-0.793,34.729
0.104,0.650,1.073,2.014,4.211,28.748
0.104,0.744,1.089,4.272,7.996,14.465
0.125,0.645,1.035,9.216,11.230,-4.089
0.123,0.509,1.036,14.465,11.414,-21.301
0.134,0.335,1.033,20.264,11.414,-31.799
0.157,0.176,0.993,25.391,11.353,-33.630
0.208,0.083,0.951,23.376,10.620,-29.053
0.256,0.083,0.918,17.029,9.277,-18.982
0.269,0.151,0.906,11.353,7.446,-6.348
0.262,0.271,0.894,4.517,5.737,4.822
0.272,0.374,0.899,-3.723,4.089,12.451
0.263,0.452,0.927,-11.169,3.357,14.832
0.249,0.503,0.962,-15.747,4.028,12.634
0.239,0.515,0.979,-13.977,5.798,7.019
0.222,0.496,0.987,-6.592,7.996,-0.427
0.211,0.460,0.970,3.662,10.132,-7.568
0.210,0.366,0.923,16.235,11.536,-14.282
0.205,0.294,0.894,22.461,11.475,-18.250
0.200,0.225,0.860,24.292,11.169,-18.372
0.198,0.167,0.816,23.437,10.193,-14.099
0.216,0.166,0.798,16.907,8.362,-7.019
0.226,0.208,0.794,9.521,5.615,0.671
0.223,0.253,0.796,6.042,2.686,8.118
0.225,0.314,0.806,1.953,0.549,13.123
0.231,0.352,0.823,-1.343,-0.671,14.954
0.237,0.363,0.835,-2.563,-1.526,14.099
0.232,0.364,0.842,-1.465,-1.587,12.146
0.220,0.369,0.848,1.831,-1.282,9.705
0.234,0.355,0.844,5.188,-0.427,7.446
0.253,0.336,0.840,6.287,0.549,5.920
0.250,0.348,0.840,5.005,0.549,5.737
0.251,0.375,0.818,4.883,0.122,7.141
0.257,0.387,0.809,4.456,-0.916,8.423
0.247,0.389,0.829,2.014,-2.258,8.057
0.252,0.379,0.860,-1.099,-3.357,7.324
0.240,0.374,0.881,-2.136,-2.991,6.958
0.234,0.402,0.892,-2.991,-2.014,7.141
0.240,0.412,0.911,-1.282,-1.648,7.080

-0.345,-0.992,1.714,-16.235,50.110,78.064
-0.377,-1.141,1.787,-17.822,64.270,99.976
-0.459,-1.259,1.830,-16.602,81.604,127.747
-0.561,-1.338,1.843,-16.846,101.563,161.194
-0.659,-1.289,1.840,-20.935,122.620,198.242
-0.731,-1.158,1.794,-17.517,142.944,236.206
-0.793,-1.000,1.706,-4.822,160.217,269.226
-0.855,-0.943,1.619,8.667,171.814,293.152
-0.877,-0.909,1.539,11.475,177.979,306.641
-0.922,-0.884,1.459,8.728,182.617,316.650
-1.026,-0.979,1.394,9.521,188.904,330.261
-1.098,-0.970,1.352,5.005,196.289,350.159
-1.178,-0.807,1.288,3.296,204.590,377.319
-1.318,-0.658,1.195,19.409,212.830,409.607
-1.491,-0.418,1.107,34.912,219.055,440.857
-1.637,-0.003,0.993,42.603,221.558,467.712
-1.768,0.406,0.869,63.721,219.910,488.037
-1.930,0.762,0.729,89.111,215.454,499.023
-2.060,1.202,0.493,107.849,209.900,502.808
-2.007,1.600,0.241,125.549,201.416,501.587
-1.970,1.900,0.156,144.531,181.641,489.868
-2.033,2.081,0.245,153.687,150.391,463.806
-2.102,2.151,0.398,151.672,118.958,429.260
-2.169,2.348,0.469,138.794,98.145,395.813
-2.121,2.645,0.434,132.324,93.933,373.413
-2.059,2.979,0.345,143.188,97.046,355.896
-2.117,3.296,0.250,154.175,93.811,328.247
-2.041,3.964,-0.398,158.020,81.238,288.330
-1.881,4.000,-0.213,134.949,38.635,142.029
-1.459,3.353,0.108,139.465,-11.292,-48.584
-1.554,2.738,0.365,133.423,-19.043,-60.364
-1.791,2.400,0.430,124.023,-13.916,-11.292
-1.900,2.438,0.350,39.490,-3.479,34.912
-1.761,2.850,0.213,-65.918,0.610,48.950
-1.622,3.196,0.169,-137.024,-13.000,23.682
-1.549,3.482,0.244,-153.625,-44.556,-28.809
-1.536,3.625,0.371,-116.089,-84.534,-99.060
-1.640,3.633,0.536,-55.908,-118.042,-180.847
-1.822,3.519,0.699,-10.132,-135.010,-268.799
-1.953,3.324,0.732,8.118,-136.230,-356.140
-2.068,3.120,0.646,5.981,-129.028,-435.913
-2.270,2.875,0.495,2.625,-123.962,-507.446
-2.529,2.551,0.358,1.099,-128.174,-573.242
-2.797,2.170,0.272,-6.653,-141.602,-632.141
-3.013,1.662,0.285,-23.315,-161.133,-680.786
-3.168,1.142,0.398,-47.607,-184.387,-715.942
-3.227,0.636,0.617,-66.040,-208.374,-734.131
-3.154,0.226,0.897,-71.838,-228.516,-735.352
-3.103,-0.062,1.113,-66.467,-239.563,-721.436
-3.001,-0.318,1.291,-47.119,-237.854,-696.350
-2.919,-0.545,1.459,-22.461,-226.990,-667.053
-2.875,-0.699,1.583,-5.615,-213.379,-640.381
-2.765,-0.955,1.653,10.315,-196.045,-620.422
-2.619,-1.351,1.677,24.475,-170.593,-602.661
-2.496,-1.767,1.673,24.597,-139.709,-575.806
-2.275,-2.115,1.625,14.099,-109.497,-529.846
-1.979,-2.342,1.502,-1.404,-83.313,-463.501
-1.678,-2.378,1.359,-27.466,-65.063,-384.033
-1.446,-2.249,1.283,-62.805,-57.739,-303.040
-1.271,-2.051,1.349,-93.628,-60.120,-228.821
-1.142,-1.749,1.505,-111.755,-65.735,-164.795
-1.017,-1.396,1.641,-110.657,-66.589,-111.572
-0.911,-1.035,1.689,-92.834,-58.899,-70.374
-0.701,-0.553,1.627,-71.655,-44.189,-41.504
-0.724,-0.452,1.449,-46.326,-27.100,-24.963
-0.576,0.309,1.669,-49.866,-8.057,-23.987
-0.498,-0.164,1.201,14.404,-1.709,-26.428
-0.427,-0.178,1.131,20.630,-6.042,-36.194
-0.282,-0.173,1.131,4.761,-11.963,-48.706
-0.203,-0.311,1.091,11.963,-16.479,-50.415
-0.098,-0.350,1.047,15.564,-15.991,-43.030
-0.029,-0.338,0.967,19.348,-14.099,-28.992
0.009,-0.276,0.893,20.813,-13.123,-12.451
0.026,-0.131,0.885,10.071,-12.146,0.854
0.046,0.022,0.914,-4.700,-10.803,11.230
0.073,0.126,0.940,-10.071,-10.803,19.348
0.088,0.217,0.994,-11.841,-12.024,23.071
0.098,0.252,1.027,-9.460,-12.085,23.193
0.114,0.262,1.048,-7.507,-10.437,22.583
0.135,0.328,1.055,-8.423,-7.141,22.583
0.148,0.364,0.995,-2.502,-3.845,23.865
0.194,0.429,0.953,1.465,-2.380,24.414
0.244,0.519,0.932,2.136,-3.906,21.484
0.260,0.526,0.937,3.662,-7.385,16.174
0.257,0.536,0.983,3.662,-10.498,10.559
0.268,0.542,1.026,5.737,-10.315,5.981
0.251,0.558,1.051,9.949,-7.263,2.014
0.223,0.540,1.035,15.320,-2.869,-2.197
0.212,0.492,1.003,15.747,2.197,-7.751
0.224,0.437,0.990,10.071,6.775,-13.550
0.208,0.388,0.988,4.700,10.315,-17.090
0.182,0.302,0.976,4.639,12.878,-17.822
0.175,0.222,0.953,4.333,15.320,-16.785
0.174,0.153,0.915,3.723,17.517,-13.489
0.180,0.119,0.884,1.465,18.494,-7.996
0.190,0.129,0.843,-2.075,18.127,-0.732
0.208,0.170,0.804,-5.432,16.357,8.606
0.233,0.256,0.776,-8.728,12.939,17.944
0.260,0.377,0.776,-10.559,6.958,24.780
0.276,0.501,0.812,-7.385,-0.061,27.588
0.261,0.579,0.851,-1.282,-5.188,26.367
0.250,0.647,0.903,1.953,-7.996,20.203
0.239,0.643,0.946,5.493,-8.667,11.353
0.243,0.606,0.984,9.521,-7.263,1.709
0.229,0.532,1.006,13.428,-4.517,-7.080
0.223,0.437,1.003,16.479,-0.305,-14.099
0.237,0.335,0.967,17.639,5.371,-17.456
0.243,0.245,0.931,13.428,10.254,-16.541
0.235,0.194,0.908,5.371,13.916,-11.841
0.225,0.190,0.870,-1.343,16.541,-4.456
0.228,0.224,0.813,-5.127,18.188,3.967
0.234,0.327,0.764,-8.057,17.395,11.719
0.224,0.428,0.736,-7.080,13.245,15.747
0.219,0.522,0.745,-3.357,7.019,14.709
0.234,0.571,0.771,1.038,0.549,8.911
0.221,0.565,0.816,6.104,-4.395,0.305
0.217,0.498,0.856,11.292,-6.775,-8.423
0.224,0.407,0.888,14.282,-6.958,-15.076
0.233,0.311,0.902,13.794,-5.127,-18.372

-0.270,-0.917,1.706,-30.762,55.176,93.140
-0.315,-0.924,1.700,-29.602,76.477,124.573
-0.393,-0.881,1.668,-27.710,96.802,155.640
-0.484,-0.820,1.639,-24.048,113.281,183.289
-0.545,-0.791,1.611,-17.517,125.488,205.566
-0.659,-0.847,1.654,-6.958,135.071,224.060
-0.719,-0.929,1.713,4.761,144.104,241.699
-0.786,-0.932,1.702,17.334,155.212,263.184
-0.883,-0.934,1.592,34.058,169.800,290.833
-0.998,-0.924,1.431,42.847,185.059,320.740
-1.092,-0.852,1.285,36.377,196.777,350.098
-1.157,-0.710,1.202,27.588,203.735,378.845
-1.258,-0.584,1.245,25.757,205.811,404.968
-1.312,-0.446,1.297,25.391,205.627,427.246
-1.427,-0.258,1.214,30.823,209.900,447.876
-1.556,-0.070,1.022,43.396,220.825,467.651
-1.616,0.160,0.760,57.678,229.431,484.375
-1.635,0.445,0.498,73.120,227.783,494.202
-1.630,0.736,0.305,91.431,212.341,496.765
-1.606,1.060,0.164,104.553,185.242,492.310
-1.567,1.333,0.050,117.126,153.625,481.262
-1.507,1.515,0.000,123.108,121.216,464.478
-1.500,1.679,0.075,113.464,89.539,441.284
-1.593,1.860,0.227,97.961,60.730,413.330
-1.653,1.994,0.395,92.529,38.818,385.498
-1.658,2.142,0.552,94.666,26.550,359.375
-1.746,2.359,0.671,102.112,23.437,332.275
-1.815,2.589,0.698,116.821,27.283,303.467
-1.867,2.771,0.674,129.822,34.851,270.630
-1.838,4.000,0.174,126.526,36.682,200.073
-1.488,3.605,0.217,138.428,11.780,7.935
-1.518,2.640,0.363,152.405,-1.282,-61.401
-1.765,2.169,0.425,141.418,-5.554,-55.298
-2.023,1.898,0.495,99.915,-1.221,-25.085
-2.076,2.017,0.514,24.841,9.644,-0.793
-1.923,2.443,0.372,-20.996,16.418,9.827
-1.756,2.844,0.206,-16.663,7.446,-1.526
-1.686,3.214,0.123,8.057,-18.616,-41.016
-1.691,3.445,0.194,31.128,-55.542,-103.882
-1.736,3.506,0.300,49.438,-89.355,-176.819
-1.847,3.483,0.372,59.021,-110.046,-251.709
-2.000,3.407,0.374,61.523,-116.455,-324.707
-2.101,3.200,0.318,55.969,-115.356,-398.132
-2.265,3.071,0.289,28.625,-118.347,-474.243
-2.472,2.860,0.321,-1.099,-130.188,-548.096
-2.762,2.601,0.428,-30.457,-147.644,-617.981
-3.083,2.304,0.627,-56.702,-164.856,-679.687
-3.355,1.929,0.806,-72.632,-174.744,-732.971
-3.650,1.496,0.911,-80.383,-174.072,-777.527
-3.846,0.957,1.021,-81.360,-168.457,-810.425
-3.919,0.527,1.192,-84.961,-167.542,-826.721
-4.000,0.205,1.358,-75.378,-168.762,-826.599
-4.000,-0.214,1.478,-37.842,-164.185,-816.711
-4.000,-0.850,1.588,6.104,-153.137,-800.537
-3.996,-1.519,1.630,30.518,-139.954,-775.757
-3.652,-2.201,1.593,37.781,-123.474,-734.314
-3.095,-2.818,1.524,36.438,-106.873,-671.936
-2.406,-3.248,1.468,33.936,-97.046,-588.928
-1.839,-3.522,1.498,35.217,-92.346,-488.098
-1.476,-3.515,1.525,22.705,-86.670,-372.925
-1.376,-3.195,1.554,-19.287,-74.890,-250.488
-1.288,-2.529,1.615,-95.764,-56.274,-134.644
-1.091,-1.759,1.628,-168.091,-33.203,-38.879
-0.921,-0.947,1.562,-220.215,-9.766,28.259
-0.774,-0.181,1.420,-232.788,8.606,65.491
-0.617,0.229,1.324,-191.711,16.968,73.242
-0.634,1.061,1.270,-152.344,17.456,49.988
-0.416,0.679,0.835,-51.453,7.751,10.071
-0.508,0.499,0.812,43.396,-22.400,-34.302
-0.419,0.293,0.933,54.138,-47.913,-82.520
-0.290,-0.068,1.060,71.106,-61.218,-112.244
-0.175,-0.508,1.106,92.285,-61.096,-117.554
-0.044,-0.729,1.115,90.881,-51.392,-100.403
0.047,-0.843,1.021,77.209,-38.513,-64.819
0.107,-0.728,0.972,43.213,-26.428,-20.996
0.090,-0.464,1.005,-1.099,-17.517,20.142
0.098,-0.146,1.044,-37.048,-10.620,52.002
0.136,0.180,1.056,-51.147,-4.272,72.388
0.136,0.427,1.033,-44.800,1.038,80.261
0.117,0.609,1.010,-32.104,2.991,75.806
0.133,0.735,1.000,-18.433,2.441,62.439
0.163,0.767,0.999,-1.038,1.038,44.617
0.181,0.761,0.950,14.160,0.732,27.161
0.218,0.725,0.890,22.583,1.282,13.428
0.262,0.668,0.884,21.606,-1.038,2.747
0.256,0.573,0.930,18.311,-4.761,-4.639
0.238,0.517,0.990,14.526,-5.676,-9.399
0.241,0.428,1.001,12.878,-2.747,-10.559
0.217,0.390,1.007,10.864,2.319,-9.460
0.203,0.345,0.988,7.507,7.690,-7.751
0.177,0.328,0.955,4.150,12.207,-5.371
0.173,0.322,0.911,2.563,15.808,-3.296
0.173,0.327,0.848,5.432,17.029,-1.770
0.186,0.320,0.778,9.277,15.686,-0.732
0.215,0.323,0.740,9.766,12.085,0.793
0.246,0.323,0.728,9.460,6.958,3.662
0.250,0.332,0.750,9.094,1.526,8.301
0.244,0.367,0.801,5.920,-2.686,12.634
0.238,0.405,0.852,2.686,-4.517,15.381
0.244,0.408,0.880,2.625,-4.883,16.785
0.244,0.444,0.891,2.014,-4.639,17.822
0.232,0.483,0.886,3.357,-4.272,18.799
0.238,0.510,0.875,6.165,-4.272,17.456
0.235,0.530,0.875,8.240,-5.310,13.733
0.230,0.539,0.893,9.949,-6.287,8.728
0.222,0.549,0.907,12.329,-6.714,3.723
0.215,0.500,0.924,15.869,-5.859,-0.793
0.205,0.432,0.936,15.503,-4.028,-4.578
0.200,0.367,0.933,12.085,-1.465,-6.775
0.202,0.317,0.907,9.888,1.648,-5.981
0.216,0.309,0.876,8.728,4.395,-2.991
0.211,0.312,0.843,9.094,5.554,0.854
0.209,0.316,0.813,8.667,5.005,4.089
0.219,0.328,0.800,4.883,3.601,6.287
0.227,0.369,0.821,0.488,1.831,8.606
0.224,0.413,0.847,-0.488,-0.061,10.254
0.213,0.436,0.857,1.282,-1.343,10.254
0.223,0.458,0.853,2.991,-1.404,9.399
0.233,0.472,0.858,3.479,-1.282,8.362

-0.267,-0.807,1.634,-40.100,55.969,53.711
-0.267,-0.886,1.618,-31.128,70.374,75.928
-0.337,-0.922,1.585,-17.395,82.336,98.816
-0.396,-0.923,1.570,-8.240,90.637,119.446
-0.465,-0.942,1.642,-1.526,96.008,137.085
-0.548,-1.022,1.823,5.737,100.159,151.855
-0.650,-1.180,2.050,16.724,106.079,165.283
-0.760,-1.340,2.224,26.611,118.835,180.969
-0.868,-1.514,2.280,38.086,140.991,203.125
-1.006,-1.652,2.205,46.265,170.410,232.788
-1.129,-1.727,2.020,47.913,201.416,270.874
-1.264,-1.661,1.766,40.222,229.065,317.444
-1.428,-1.461,1.453,25.330,251.404,368.530
-1.604,-1.079,1.097,5.493,268.494,419.739
-1.836,-0.545,0.726,-13.367,279.419,467.834
-1.941,-0.022,0.405,-20.996,280.457,506.714
-1.906,0.526,0.213,-22.400,266.113,530.762
-1.954,1.054,0.145,-12.817,239.624,539.551
-1.966,1.512,0.176,12.207,209.656,534.729
-1.922,1.884,0.275,50.354,179.810,515.686
-1.933,2.086,0.434,92.834,152.893,482.056
-1.949,2.067,0.612,132.385,132.263,437.317
-1.952,1.952,0.790,161.682,121.460,393.127
-1.978,1.792,0.889,185.547,121.033,361.938
-2.037,1.704,0.894,200.195,127.502,347.046
-2.153,1.742,0.783,203.308,136.230,345.642
-2.243,2.005,0.538,199.646,143.738,352.661
-2.239,2.369,0.260,196.838,145.142,361.145
-2.298,2.284,0.058,189.575,134.216,359.253
-1.909,4.000,-0.878,134.399,77.576,234.558
-1.278,3.404,-0.084,145.630,-29.724,-65.491
-0.689,2.628,0.117,175.842,-38.147,-89.600
-1.073,2.498,0.401,166.382,-32.410,-46.997
-1.692,2.125,0.410,115.295,-24.292,5.676
-1.643,2.078,0.382,21.118,-20.020,54.688
-1.413,2.659,0.325,-59.753,-23.437,75.684
-1.415,3.271,0.316,-93.994,-35.706,48.523
-1.389,3.566,0.381,-85.083,-56.885,-23.804
-1.363,3.534,0.564,-60.547,-80.994,-124.817
-1.430,3.271,0.780,-32.410,-97.595,-229.797
-1.532,2.861,0.932,-5.432,-98.816,-318.726
-1.677,2.495,0.958,7.996,-87.708,-386.414
-1.758,2.266,0.811,3.723,-72.754,-435.791
-1.799,2.163,0.588,-4.883,-61.951,-473.572
-1.917,2.074,0.391,-9.827,-64.270,-509.399
-2.077,1.888,0.304,-21.240,-80.139,-548.767
-2.218,1.655,0.313,-47.180,-104.858,-587.830
-2.339,1.376,0.375,-75.317,-131.287,-619.568
-2.445,1.093,0.502,-97.900,-156.128,-640.686
-2.519,0.943,0.664,-110.535,-180.542,-652.405
-2.533,0.863,0.836,-103.516,-201.416,-656.250
-2.628,0.841,1.004,-76.965,-215.027,-657.349
-2.773,0.763,1.112,-35.767,-219.849,-662.781
-2.858,0.509,1.179,15.320,-216.187,-672.607
-2.949,0.130,1.225,69.336,-206.909,-682.861
-3.025,-0.353,1.317,116.333,-191.101,-687.012
-3.025,-0.968,1.415,153.687,-166.809,-680.176
-2.904,-1.809,1.435,174.072,-131.897,-657.349
-2.571,-2.696,1.386,156.738,-87.769,-610.718
-2.010,-3.382,1.250,105.408,-44.128,-531.067
-1.385,-3.697,1.063,38.391,-14.771,-419.617
-1.241,-3.559,0.939,-41.931,-4.761,-288.696
-1.100,-2.940,1.016,-132.202,-7.141,-159.058
-0.936,-2.053,1.177,-200.562,-13.855,-49.011
-0.797,-1.143,1.310,-228.394,-19.348,28.992
-0.761,-0.354,1.355,-213.257,-22.095,72.937
-0.760,0.247,1.326,-166.199,-24.536,83.984
-0.698,0.624,1.248,-106.201,-30.151,67.749
-0.590,0.818,1.286,-49.988,-39.185,32.349
-0.505,1.109,1.500,-17.883,-44.495,-14.465
-0.472,0.530,1.229,34.302,-48.279,-60.120
-0.454,0.127,1.204,65.002,-53.467,-98.633
-0.354,-0.160,1.222,78.308,-52.307,-121.094
-0.289,-0.517,1.153,84.595,-44.983,-122.620
-0.198,-0.741,1.104,78.552,-33.447,-105.957
-0.079,-0.815,1.006,62.256,-22.278,-76.721
-0.003,-0.750,0.959,39.185,-16.846,-41.138
-0.001,-0.549,0.993,12.756,-14.893,-6.775
0.026,-0.225,1.027,-9.460,-11.108,19.653
0.080,-0.008,0.986,-14.832,-5.798,37.659
0.134,0.246,0.929,-14.648,-3.235,47.119
0.146,0.474,0.895,-11.475,-4.639,48.035
0.130,0.631,0.897,-3.479,-9.338,40.771
0.114,0.701,0.944,4.944,-14.648,26.245
0.094,0.697,1.017,11.658,-18.188,7.019
0.108,0.565,1.076,19.165,-18.005,-12.207
0.140,0.356,1.101,26.855,-14.404,-28.503
0.162,0.193,1.097,27.405,-8.850,-36.377
0.193,0.065,1.078,23.926,-3.601,-34.119
0.221,0.001,1.060,15.198,1.526,-24.353
0.202,0.036,1.045,2.747,6.836,-11.230
0.171,0.139,1.032,-6.287,12.390,0.977
0.146,0.229,1.014,-12.207,16.235,9.644
0.122,0.300,0.990,-15.320,18.677,11.719
0.117,0.347,0.943,-13.672,20.264,8.728
0.115,0.370,0.873,-5.493,19.836,3.601
0.150,0.353,0.790,2.014,16.296,-1.465
0.181,0.274,0.747,8.911,9.766,-5.005
0.188,0.250,0.775,8.240,1.770,-7.874
0.208,0.225,0.820,6.653,-4.333,-8.057
0.209,0.211,0.869,8.484,-7.751,-5.249
0.190,0.226,0.928,7.446,-9.949,-2.991
0.186,0.231,0.981,5.371,-10.071,-1.160
0.182,0.236,1.037,4.944,-8.362,0.061
0.161,0.209,1.077,5.920,-5.676,0.000
0.165,0.193,1.077,8.179,-2.075,-0.244
0.176,0.184,1.025,10.864,2.991,0.549
0.184,0.203,0.975,9.094,6.897,3.357
0.189,0.240,0.941,4.395,8.484,6.409
0.199,0.272,0.918,0.977,8.484,8.118
0.197,0.300,0.897,0.000,7.751,7.812
0.177,0.317,0.866,1.648,6.897,5.798
0.176,0.300,0.833,4.639,5.310,2.869
0.180,0.269,0.821,5.859,2.563,-0.183
0.181,0.231,0.838,6.042,-0.916,-2.869
0.183,0.176,0.866,8.667,-3.967,-3.540
0.193,0.148,0.907,11.292,-6.042,-2.747
0.196,0.135,0.937,14.465,-7.385,-0.061
0.197,0.151,0.965,14.343,-6.775,3.845

-0.417,-0.896,1.575,-19.531,49.377,99.426
-0.448,-0.995,1.619,-16.663,63.660,122.192
-0.503,-1.025,1.599,-14.526,79.590,147.583
-0.552,-1.035,1.546,-11.902,95.764,174.377
-0.587,-1.017,1.472,-11.230,109.497,200.623
-0.601,-0.968,1.412,-9.216,119.019,225.159
-0.659,-0.908,1.408,-2.014,124.939,248.291
-0.722,-0.866,1.403,9.216,127.930,269.592
-0.781,-0.849,1.393,18.921,130.493,288.391
-0.861,-0.820,1.381,24.231,135.254,306.824
-0.937,-0.827,1.342,21.057,141.541,325.684
-1.024,-0.838,1.303,6.226,149.292,345.093
-1.065,-0.775,1.250,-11.169,157.654,366.028
-1.140,-0.628,1.125,-16.724,165.710,389.526
-1.216,-0.428,0.942,-9.460,171.509,414.612
-1.278,-0.178,0.720,-2.625,171.448,438.538
-1.376,0.089,0.518,-0.610,164.673,459.167
-1.496,0.257,0.392,-2.197,152.649,474.304
-1.547,0.562,0.300,-8.728,137.390,483.215
-1.546,0.944,0.168,-5.920,121.460,490.662
-1.527,1.337,0.111,12.146,102.600,493.896
-1.492,1.807,0.105,29.785,77.515,485.718
-1.413,2.329,0.164,45.471,50.598,464.478
-1.394,2.727,0.279,66.345,27.893,428.406
-1.388,2.892,0.418,81.909,13.306,376.282
-1.418,2.814,0.532,87.097,9.644,314.819
-1.465,2.537,0.553,88.196,15.930,257.935
-1.418,2.169,0.475,88.440,28.015,218.079
-1.436,1.874,0.349,79.956,37.354,196.960
-1.465,1.710,0.236,63.293,39.307,191.589
-1.479,1.719,0.198,46.326,34.424,196.289
-1.482,1.867,0.216,33.386,25.513,203.674
-1.503,2.072,0.236,29.419,14.832,206.909
-1.542,2.296,0.286,32.776,3.906,200.867
-1.581,2.651,0.281,39.734,-5.310,184.509
-1.484,3.176,0.157,58.105,-12.024,160.278
-1.272,3.854,0.000,85.266,-20.752,124.756
-1.190,4.000,-0.115,107.117,-34.912,66.650
-1.268,4.000,-0.059,106.812,-54.260,-20.142
-1.372,4.000,0.069,78.247,-81.543,-129.639
-1.575,4.000,0.297,39.917,-104.370,-241.455
-1.875,3.710,0.516,10.498,-117.859,-339.844
-2.172,3.125,0.718,-7.568,-120.239,-419.678
-2.397,2.565,0.867,-22.278,-112.305,-481.873
-2.501,2.067,0.919,-28.137,-98.938,-527.161
-2.542,1.672,0.860,-22.400,-86.243,-559.326
-2.533,1.305,0.701,-0.488,-79.468,-579.895
-2.442,0.978,0.449,27.405,-80.200,-592.468
-2.295,0.728,0.230,42.725,-89.600,-599.731
-2.199,0.494,0.105,42.114,-108.032,-602.234
-2.186,0.315,0.081,25.146,-132.996,-600.403
-2.212,0.193,0.171,-1.099,-160.583,-594.971
-2.248,0.128,0.379,-26.917,-187.500,-587.341
-2.349,0.054,0.729,-42.603,-210.205,-579.956
-2.354,-0.093,1.287,-50.171,-221.375,-574.280
-2.414,-0.270,1.898,-49.438,-212.646,-567.322
-2.579,-0.517,2.240,-34.607,-176.392,-554.565
-2.643,-0.903,2.134,-4.761,-117.493,-536.743
-2.477,-1.361,1.686,21.118,-57.800,-514.343
-2.166,-1.765,1.203,21.423,-20.752,-483.643
-1.844,-1.999,0.859,-5.127,-12.451,-438.477
-1.556,-2.141,0.684,-42.419,-25.269,-378.662
-1.340,-2.092,0.726,-89.966,-49.988,-309.631
-1.225,-1.892,0.917,-133.362,-79.346,-237.793
-1.150,-1.574,1.237,-155.945,-104.187,-169.983
-1.028,-1.303,1.458,-157.410,-118.591,-114.624
-0.822,-0.488,1.963,-145.508,-115.906,-73.792
-0.769,-0.673,1.701,-39.734,-109.558,-38.940
-0.759,-0.379,1.760,9.033,-103.088,-23.865
-0.660,-0.081,1.774,27.100,-88.440,-25.696
-0.526,0.012,1.682,52.917,-68.176,-33.508
-0.455,-0.005,1.525,73.242,-47.913,-43.091
-0.332,-0.004,1.394,62.378,-30.518,-51.392
-0.257,-0.033,1.290,49.744,-17.334,-54.138
-0.205,-0.112,1.205,34.851,-5.127,-51.575
-0.135,-0.135,1.089,17.212,8.179,-42.847
-0.074,-0.118,0.959,0.183,20.874,-28.748
0.012,-0.066,0.827,-13.550,27.771,-12.817
0.071,0.024,0.754,-19.836,26.794,1.038
0.073,0.162,0.722,-17.761,20.935,12.695
0.067,0.316,0.697,-7.996,13.123,21.729
0.078,0.431,0.681,3.967,4.150,26.611
0.091,0.541,0.704,10.864,-5.493,25.452
0.085,0.573,0.771,16.418,-14.893,20.203
0.068,0.572,0.841,19.287,-20.752,13.062
0.099,0.525,0.891,19.348,-21.973,6.104
0.186,0.482,0.938,17.822,-20.630,1.892
0.193,0.429,0.972,17.029,-18.555,2.563
0.174,0.473,1.001,11.902,-15.625,6.714
0.168,0.528,1.005,7.568,-10.803,12.146
0.172,0.576,1.005,2.014,-6.104,15.015
0.157,0.624,1.018,-1.526,-2.441,14.404
0.130,0.644,1.017,-2.014,1.587,10.620
0.124,0.618,0.996,1.343,6.348,4.639
0.135,0.568,0.947,5.798,11.047,-1.465
0.137,0.508,0.882,11.536,13.611,-5.615
0.154,0.465,0.828,16.296,13.489,-7.141
0.157,0.433,0.786,18.311,11.841,-6.104
0.168,0.425,0.762,15.686,9.460,-3.906
0.178,0.459,0.763,10.803,7.202,-0.916
0.185,0.480,0.774,9.094,4.395,2.075
0.183,0.495,0.797,9.460,1.404,3.296
0.181,0.503,0.822,9.949,-0.916,3.418
0.174,0.505,0.846,10.315,-2.563,2.625
0.185,0.508,0.861,10.315,-3.357,1.648
0.208,0.529,0.884,9.155,-3.723,1.038
0.201,0.527,0.913,10.132,-3.723,-0.122
0.190,0.501,0.922,12.634,-2.625,-1.892
0.193,0.484,0.901,12.817,0.366,-3.113
0.192,0.481,0.867,10.376,3.784,-3.418
0.187,0.487,0.836,7.690,5.615,-3.296
0.176,0.483,0.824,5.859,5.920,-3.357
0.156,0.458,0.829,2.991,5.493,-5.005
0.137,0.423,0.834,0.122,4.883,-7.263
0.158,0.405,0.828,-0.977,4.822,-7.812
0.175,0.397,0.830,0.732,3.479,-6.836
0.167,0.379,0.847,3.235,1.160,-5.920
0.160,0.357,0.867,5.127,-0.671,-4.944
0.175,0.324,0.879,6.165,-0.549,-3.601

-0.255,-1.045,1.619,-21.912,41.992,35.339
-0.272,-1.130,1.658,-23.499,60.059,62.744
-0.295,-1.115,1.637,-20.081,78.064,91.980
-0.370,-1.030,1.592,-14.526,92.896,117.615
-0.401,-0.968,1.541,-8.667,102.661,136.902
-0.454,-0.953,1.570,-3.357,108.032,150.330
-0.546,-1.048,1.708,2.441,111.389,159.363
-0.586,-1.175,1.841,9.094,116.394,168.274
-0.637,-1.308,1.911,21.973,127.747,181.946
-0.750,-1.440,1.846,38.208,146.912,204.346
-0.905,-1.557,1.643,45.166,169.189,234.985
-1.060,-1.569,1.373,36.560,190.002,274.841
-1.208,-1.430,1.102,19.043,205.017,324.890
-1.416,-1.078,0.888,1.526,211.365,380.920
-1.635,-0.619,0.718,-10.986,211.182,436.707
-1.816,-0.118,0.597,-25.024,207.031,484.863
-1.982,0.424,0.550,-36.987,199.097,520.142
-2.126,0.963,0.546,-46.509,191.162,541.809
-2.237,1.424,0.556,-39.978,184.692,550.293
-2.283,1.871,0.548,-14.343,177.979,542.847
-2.255,2.306,0.503,26.794,171.082,520.264
-2.167,2.664,0.460,80.627,160.767,486.938
-2.081,2.840,0.512,138.672,145.447,443.176
-2.098,2.884,0.625,185.486,129.700,393.982
-2.232,2.977,0.536,219.666,121.704,350.037
-2.241,3.361,0.185,241.638,124.634,321.594
-2.023,3.968,-0.319,246.643,129.028,304.810
-1.488,4.000,-2.370,217.590,116.394,274.109
-1.430,4.000,-0.999,137.329,40.527,111.450
-1.325,4.000,-0.441,105.469,-23.071,-15.747
-1.717,3.839,-0.255,12.756,-47.363,-42.786
-1.975,3.659,-0.094,-69.763,-70.251,-73.303
-1.868,3.417,0.171,-147.949,-88.745,-131.042
-1.847,3.046,0.465,-172.729,-104.004,-191.345
-1.880,2.654,0.731,-140.076,-117.188,-241.638
-1.946,2.301,0.859,-79.651,-123.840,-282.288
-1.965,2.023,0.777,-15.930,-117.676,-315.430
-1.848,1.928,0.460,30.762,-102.905,-340.149
-1.714,1.979,0.032,60.913,-96.680,-358.093
-1.666,2.125,-0.373,61.035,-109.192,-378.784
-1.720,2.318,-0.613,32.593,-139.099,-408.569
-1.910,2.438,-0.726,-1.282,-182.068,-448.547
-2.179,2.380,-0.699,-27.832,-232.788,-497.131
-2.526,2.178,-0.433,-50.293,-286.438,-551.941
-2.945,1.849,0.060,-64.026,-337.646,-605.957
-3.236,1.349,0.716,-55.847,-375.183,-651.855
-3.500,0.925,1.396,-34.485,-387.329,-687.134
-3.744,0.510,2.026,14.893,-367.676,-708.801
-3.753,-0.004,2.494,89.417,-315.918,-718.506
-3.634,-0.550,2.660,148.254,-239.868,-719.482
-3.575,-1.083,2.530,181.335,-149.475,-708.252
-3.480,-1.633,2.135,190.369,-61.279,-680.786
-3.077,-2.260,1.636,174.622,8.179,-637.085
-2.457,-2.803,1.201,126.038,48.157,-575.256
-1.912,-3.094,0.956,48.340,59.265,-493.225
-1.488,-3.166,0.867,-34.424,49.438,-392.761
-1.205,-2.939,0.890,-103.149,28.198,-283.386
-1.062,-2.469,0.941,-144.653,4.883,-180.542
-0.978,-1.896,0.970,-155.212,-14.648,-95.947
-0.865,-1.312,1.007,-149.353,-31.677,-34.851
-0.735,-0.782,1.085,-137.024,-47.302,2.808
-0.690,-0.391,1.218,-113.220,-61.707,21.606
-0.659,-0.343,1.110,-77.820,-72.754,22.949
-0.423,0.691,1.674,-62.805,-69.336,7.019
-0.366,-0.008,1.251,68.359,-71.350,-3.418
-0.431,0.018,1.359,85.083,-73.914,-20.569
-0.312,0.058,1.483,51.331,-63.049,-39.917
-0.243,-0.167,1.470,46.326,-45.349,-46.509
-0.153,-0.250,1.402,32.166,-23.254,-45.227
-0.094,-0.339,1.222,26.001,-4.517,-34.546
-0.033,-0.336,1.058,18.127,6.409,-18.127
0.051,-0.226,0.968,2.808,11.230,-0.244
0.071,-0.050,0.933,-8.057,11.047,16.479
0.075,0.115,0.932,-13.672,8.606,27.527
0.099,0.214,0.893,-6.409,5.127,32.654
0.132,0.326,0.853,0.854,1.038,34.302
0.162,0.437,0.847,7.385,-4.028,35.095
0.162,0.515,0.873,12.024,-9.705,33.264
0.166,0.553,0.922,13.062,-15.015,28.137
0.161,0.564,0.991,11.169,-17.334,21.545
0.154,0.567,1.061,9.338,-16.235,14.771
0.148,0.548,1.100,11.902,-12.390,9.094
0.147,0.501,1.093,17.456,-6.348,4.089
0.149,0.452,1.054,21.240,0.183,-0.305
0.157,0.403,0.990,20.752,7.141,-3.052
0.176,0.350,0.914,19.104,12.512,-3.235
0.200,0.324,0.856,15.137,15.320,-1.160
0.198,0.320,0.821,10.437,14.832,2.686
0.178,0.331,0.803,7.751,12.878,6.653
0.158,0.331,0.777,5.310,10.132,10.376
0.172,0.400,0.752,0.305,6.287,14.099
0.202,0.453,0.761,-0.427,1.770,17.334
0.187,0.490,0.801,1.221,-4.028,17.090
0.181,0.498,0.839,3.479,-9.277,12.817
0.188,0.467,0.879,7.019,-11.658,8.179
0.181,0.433,0.906,8.545,-10.986,5.188
0.180,0.444,0.916,6.104,-8.606,3.784
0.173,0.432,0.935,6.348,-6.104,2.747
0.178,0.385,0.939,5.920,-2.930,0.427
0.185,0.323,0.930,4.822,1.038,-1.465
0.203,0.280,0.895,4.028,4.944,-0.122
0.220,0.305,0.837,4.272,6.836,5.432
0.235,0.396,0.799,2.808,5.737,12.024
0.232,0.467,0.800,3.479,2.197,14.771
0.203,0.504,0.835,4.761,-2.197,12.634
0.184,0.503,0.883,6.226,-4.822,7.141
0.172,0.447,0.917,9.033,-5.371,1.953
0.163,0.393,0.927,9.521,-4.211,-1.160
0.157,0.376,0.918,6.165,-1.526,-1.160
0.179,0.405,0.903,3.052,0.916,0.977
0.191,0.440,0.900,4.333,1.953,2.075
0.163,0.435,0.904,8.850,2.197,0.061
0.157,0.416,0.897,11.169,2.441,-3.540
0.173,0.367,0.878,13.245,2.747,-6.165
0.175,0.329,0.871,13.245,2.747,-6.592
0.170,0.319,0.879,10.254,2.502,-4.944
0.178,0.344,0.889,8.545,2.258,-2.747
0.172,0.362,0.894,9.583,2.258,-1.099
0.166,0.360,0.897,10.437,2.502,-0.854

-0.537,-1.106,1.957,4.578,53.467,41.321
-0.739,-1.542,2.230,0.061,75.073,55.725
-0.973,-2.081,2.444,-13.062,106.506,76.965
-1.076,-2.562,2.463,-34.729,145.325,108.765
-1.073,-2.813,2.220,-50.171,190.063,158.569
-1.061,-2.873,1.796,-45.288,231.567,228.516
-1.180,-2.617,1.196,-28.198,257.996,311.584
-1.373,-1.924,0.597,-20.447,264.343,398.926
-1.544,-1.085,0.234,-17.456,250.183,479.004
-1.641,-0.089,-0.060,-23.926,218.811,536.316
-1.578,1.079,-0.198,-33.325,179.626,568.298
-1.402,2.262,-0.040,-25.024,137.573,573.853
-1.348,3.293,0.251,14.709,95.215,545.837
-1.378,3.942,0.476,71.167,63.904,481.934
-1.310,4.000,0.592,115.051,55.176,390.747
-1.141,3.790,0.600,119.202,65.063,290.283
-0.981,3.334,0.544,94.177,81.787,202.148
-0.990,2.776,0.485,74.463,94.971,140.686
-0.983,2.278,0.442,65.857,101.868,109.253
-1.007,1.942,0.408,56.580,107.300,100.647
-1.047,1.743,0.381,47.058,112.793,110.107
-1.116,1.687,0.370,32.471,116.943,130.066
-1.221,1.824,0.352,12.878,120.056,153.992
-1.199,2.041,0.261,4.639,122.009,174.438
-1.096,2.305,0.129,8.972,117.920,182.800
-0.971,2.582,-0.078,8.179,104.675,172.180
-0.767,2.986,-0.322,-4.150,85.571,144.592
-0.584,3.333,-0.469,-6.958,58.594,102.722
-0.599,3.442,-0.427,-0.244,20.752,40.466
-0.721,3.348,-0.304,4.700,-21.423,-35.828
-0.846,3.215,-0.138,5.493,-56.396,-111.755
-0.992,3.049,-0.006,17.822,-78.064,-175.476
-1.124,2.870,0.085,28.381,-90.942,-227.600
-1.244,2.698,0.163,23.132,-100.525,-271.118
-1.334,2.500,0.199,5.676,-106.812,-308.228
-1.354,2.381,0.112,-12.939,-111.084,-338.989
-1.312,2.379,-0.110,-27.039,-117.615,-364.258
-1.328,2.406,-0.334,-33.691,-134.277,-390.564
-1.450,2.387,-0.454,-40.955,-165.588,-426.208
-1.642,2.299,-0.405,-52.673,-208.191,-470.581
-1.848,2.105,-0.231,-60.791,-253.540,-515.808
-2.108,1.810,0.044,-58.533,-293.823,-559.753
-2.407,1.427,0.405,-45.715,-324.158,-601.501
-2.693,1.013,0.858,-20.142,-340.210,-635.681
-2.764,0.655,1.335,18.738,-336.548,-657.166
-2.865,0.378,1.653,68.176,-308.533,-666.138
-3.088,0.062,1.816,126.099,-257.812,-667.053
-3.215,-0.356,1.812,175.415,-193.726,-665.039
-3.216,-0.987,1.676,190.125,-126.404,-659.790
-3.146,-1.915,1.518,149.902,-61.768,-641.907
-2.853,-2.966,1.346,64.514,-6.775,-598.022
-2.164,-3.681,1.195,-44.556,28.198,-513.550
-1.549,-3.867,1.096,-139.465,35.583,-388.794
-1.277,-3.534,1.067,-193.604,18.127,-242.798
-1.158,-2.706,1.213,-216.187,-12.451,-108.093
-1.069,-1.745,1.300,-211.060,-42.786,-7.935
-0.935,-0.811,1.367,-184.204,-64.148,51.880
-0.849,-0.247,1.368,-152.466,-77.820,77.332
-0.773,0.601,1.639,-128.601,-83.191,76.233
-0.583,0.456,1.463,-21.912,-90.820,64.514
-0.616,0.486,1.516,59.509,-105.713,40.039
-0.593,0.514,1.670,79.285,-107.300,3.357
-0.505,0.337,1.771,82.153,-92.102,-28.625
-0.284,0.227,1.807,71.045,-62.378,-51.880
-0.189,0.015,1.704,71.716,-30.396,-59.753
-0.169,-0.100,1.540,57.068,1.221,-56.458
-0.115,-0.065,1.331,34.363,30.273,-46.204
-0.053,-0.070,1.088,17.334,53.284,-32.166
0.001,-0.043,0.879,2.502,66.162,-16.846
0.052,0.071,0.701,-12.817,68.970,-2.930
0.100,0.201,0.547,-17.334,63.049,9.033
0.152,0.340,0.448,-13.000,49.255,18.372
0.211,0.479,0.436,-5.554,29.175,23.071
0.230,0.596,0.509,4.578,6.897,22.888
0.231,0.667,0.626,15.320,-12.146,18.066
0.229,0.669,0.775,25.574,-26.306,10.010
0.211,0.611,0.925,31.982,-33.875,0.916
0.203,0.553,1.073,33.997,-34.058,-6.592
0.178,0.434,1.190,35.583,-28.259,-10.803
0.143,0.398,1.285,29.846,-16.663,-12.573
0.119,0.333,1.265,23.499,-1.587,-12.146
0.115,0.308,1.177,17.151,14.587,-9.705
0.125,0.273,1.046,10.315,27.100,-6.653
0.159,0.283,0.932,1.221,33.630,-3.540
0.190,0.264,0.839,-5.249,33.936,0.305
0.205,0.325,0.791,-11.902,30.945,5.371
0.220,0.376,0.754,-11.597,26.367,9.888
0.230,0.405,0.718,-3.479,20.203,12.451
0.249,0.425,0.702,3.601,12.878,11.414
0.263,0.446,0.710,9.888,5.188,8.850
0.276,0.468,0.749,15.991,-1.648,6.409
0.254,0.484,0.819,18.311,-6.531,3.479
0.234,0.469,0.901,18.616,-9.277,-0.854
0.228,0.415,0.972,20.081,-8.789,-5.188
0.220,0.349,1.002,20.203,-5.676,-8.911
0.212,0.283,1.002,17.273,-0.916,-9.827
0.220,0.244,0.992,10.559,5.188,-7.263
0.227,0.225,0.948,3.906,10.376,-3.052
0.236,0.235,0.898,0.366,13.733,2.319
0.231,0.271,0.853,-1.465,14.648,7.263
0.221,0.302,0.825,-3.235,13.672,10.803
0.226,0.317,0.799,-3.967,11.536,12.512
0.229,0.339,0.779,-2.747,8.667,13.367
0.241,0.401,0.766,0.244,5.127,14.221
0.245,0.452,0.772,6.836,0.305,14.160
0.222,0.463,0.799,12.817,-4.395,10.620
0.210,0.431,0.839,14.160,-7.812,4.822
0.215,0.363,0.868,14.709,-9.277,0.000
0.223,0.324,0.882,14.160,-8.301,-1.282
0.217,0.323,0.887,12.634,-6.409,0.610
0.209,0.332,0.894,11.353,-5.005,3.052
0.205,0.321,0.900,7.874,-3.845,3.601
0.219,0.293,0.907,3.601,-2.197,3.052
0.236,0.248,0.902,1.160,-0.061,3.723
0.244,0.248,0.888,-0.488,1.892,7.690
0.236,0.306,0.872,-2.808,2.869,14.038
0.231,0.357,0.865,-4.517,2.136,19.775
0.242,0.410,0.867,-5.432,0.549,22.034
0.229,0.448,0.892,-4.883,-1.892,21.423

-0.290,-0.999,1.589,-50.415,59.265,55.237
-0.287,-1.165,1.608,-61.462,78.735,84.167
-0.298,-1.195,1.588,-64.941,94.543,115.479
-0.346,-1.108,1.559,-54.565,106.201,147.217
-0.390,-1.045,1.551,-31.433,113.037,175.232
-0.475,-0.967,1.559,-10.803,116.333,195.496
-0.554,-1.059,1.604,4.089,119.080,208.740
-0.608,-1.225,1.673,7.324,123.779,219.849
-0.689,-1.356,1.666,2.930,135.254,237.854
-0.792,-1.461,1.524,1.343,153.992,268.066
-0.940,-1.444,1.233,-4.639,176.208,310.425
-1.195,-1.264,0.870,-23.621,195.862,362.366
-1.417,-0.943,0.511,-49.133,209.961,418.884
-1.698,-0.401,0.148,-67.932,216.370,475.220
-1.834,0.144,-0.102,-69.275,209.900,523.621
-1.880,0.671,-0.052,-50.781,185.303,556.885
-2.042,1.067,0.261,-13.000,145.691,571.045
-2.172,1.425,0.693,28.809,108.032,565.002
-2.272,1.812,0.964,74.280,89.722,544.678
-2.281,2.296,1.065,121.094,98.389,518.982
-2.147,2.761,0.939,169.067,120.483,489.136
-1.997,3.186,0.615,201.416,134.399,447.815
-1.817,3.564,0.301,211.365,133.484,395.020
-1.647,3.791,0.036,200.928,120.911,333.923
-1.595,3.847,-0.126,169.617,100.159,265.320
-1.528,3.662,-0.185,123.779,74.585,193.726
-1.478,3.362,-0.140,73.364,47.546,127.319
-1.521,3.173,-0.032,26.306,21.545,70.068
-1.536,2.526,0.194,-8.179,-1.709,22.827
-1.544,2.234,0.401,-41.199,-15.747,-2.258
-1.553,2.069,0.518,-65.430,-23.315,-17.456
-1.488,1.965,0.558,-74.890,-25.574,-32.715
-1.394,1.870,0.549,-72.754,-27.161,-51.086
-1.355,1.772,0.522,-61.829,-31.067,-72.449
-1.337,1.637,0.479,-44.739,-37.170,-94.116
-1.320,1.519,0.423,-29.480,-43.884,-114.563
-1.272,1.493,0.333,-16.357,-50.720,-132.080
-1.189,1.599,0.188,-1.343,-60.669,-147.400
-1.065,1.758,0.066,15.564,-76.477,-165.039
-1.014,1.909,-0.004,29.053,-97.717,-189.941
-0.999,2.038,-0.064,35.889,-121.887,-224.609
-1.000,2.156,-0.117,32.776,-146.729,-267.090
-1.070,2.218,-0.133,24.963,-172.363,-315.796
-1.174,2.244,-0.110,17.822,-198.181,-368.774
-1.337,2.160,-0.053,20.630,-222.412,-424.500
-1.582,2.003,0.029,29.358,-243.896,-482.422
-1.822,1.749,0.174,35.767,-262.146,-538.391
-2.107,1.468,0.404,38.086,-276.611,-590.515
-2.449,1.087,0.742,41.504,-284.851,-634.338
-2.709,0.666,1.152,36.743,-282.471,-666.260
-2.878,0.396,1.573,19.836,-263.611,-684.082
-3.032,0.197,1.906,19.104,-226.440,-688.538
-3.271,0.035,1.919,48.706,-176.270,-687.500
-3.400,-0.179,1.600,103.027,-124.756,-688.232
-3.338,-0.591,1.179,160.767,-84.534,-692.993
-3.131,-1.296,0.773,197.510,-62.134,-693.481
-2.704,-2.183,0.462,196.411,-54.199,-675.232
-2.080,-2.927,0.360,146.484,-59.204,-625.183
-1.430,-3.336,0.449,81.726,-77.271,-534.729
-1.038,-3.411,0.651,26.978,-103.577,-409.912
-0.880,-3.096,1.010,-18.372,-127.075,-273.010
-0.839,-2.432,1.363,-47.058,-137.390,-148.376
-0.818,-1.730,1.547,-52.307,-130.005,-50.964
-0.784,-1.071,1.609,-47.852,-109.070,15.503
-0.694,-0.483,1.615,-48.218,-84.229,58.289
-0.749,0.335,1.581,-64.758,-58.044,80.322
-0.546,0.468,1.297,-37.720,-35.217,85.083
-0.507,0.607,1.213,8.545,-33.691,74.707
-0.505,0.810,1.272,-4.395,-38.025,37.903
-0.458,0.730,1.361,-5.798,-41.321,-7.141
-0.412,0.499,1.415,13.794,-37.170,-46.997
-0.334,0.186,1.376,39.673,-26.550,-75.012
-0.263,-0.087,1.309,59.692,-14.221,-86.182
-0.154,-0.294,1.211,65.491,-2.136,-80.994
-0.054,-0.386,1.110,58.533,10.010,-63.293
0.011,-0.390,1.002,43.274,19.104,-37.537
0.061,-0.271,0.935,22.827,23.376,-8.545
0.056,-0.066,0.897,3.296,23.926,17.883
0.027,0.186,0.887,-12.756,22.156,36.987
0.032,0.384,0.876,-18.799,19.653,46.387
0.033,0.542,0.894,-17.639,16.357,45.654
0.015,0.623,0.911,-9.338,12.207,37.292
0.036,0.636,0.907,3.357,8.362,24.353
0.085,0.588,0.909,14.404,5.676,9.644
0.104,0.502,0.933,20.203,4.272,-2.441
0.108,0.439,0.943,21.423,3.784,-8.667
0.110,0.398,0.935,20.508,4.456,-9.338
0.115,0.366,0.921,15.320,6.165,-7.080
0.123,0.367,0.922,3.967,7.690,-4.456
0.137,0.389,0.931,-5.798,8.911,-2.502
0.135,0.394,0.922,-8.728,9.338,-1.282
0.132,0.411,0.913,-7.263,9.888,-0.549
0.129,0.385,0.898,-3.235,9.338,-0.732
0.115,0.375,0.900,-1.282,8.240,-1.770
0.142,0.360,0.885,2.686,7.568,-2.869
0.169,0.309,0.856,12.268,6.104,-2.808
0.164,0.310,0.864,14.221,4.272,-2.075
0.147,0.314,0.873,14.648,2.930,0.488
0.125,0.333,0.870,14.832,2.563,4.150
0.139,0.366,0.852,11.719,2.625,6.409
0.174,0.386,0.851,7.446,1.892,6.836
0.178,0.407,0.873,3.845,0.061,6.592
0.171,0.418,0.898,2.502,-1.526,5.798
0.168,0.436,0.923,2.930,-1.831,4.456
0.146,0.430,0.945,3.723,-1.038,2.563
0.142,0.423,0.961,2.502,0.671,-0.488
0.156,0.401,0.966,2.380,3.174,-3.235
0.160,0.350,0.948,5.615,5.798,-5.737
0.149,0.315,0.924,8.118,7.874,-6.775
0.136,0.293,0.906,8.484,9.766,-5.432
0.126,0.296,0.873,7.874,10.864,-3.662
0.147,0.314,0.838,6.592,10.803,-2.930
0.170,0.305,0.802,7.935,9.277,-3.113
0.176,0.279,0.781,10.254,5.737,-3.540
0.174,0.281,0.788,8.911,1.648,-3.052
0.167,0.289,0.822,7.324,-2.197,-0.671
0.149,0.317,0.867,5.310,-4.639,1.282
0.150,0.321,0.906,4.883,-6.042,1.282
0.153,0.310,0.930,7.080,-5.920,0.488

-0.201,-1.034,1.718,-46.204,54.382,74.402
-0.222,-1.034,1.750,-40.955,72.266,103.516
-0.230,-0.973,1.757,-30.640,88.379,129.578
-0.304,-0.904,1.727,-23.376,102.539,149.536
-0.376,-1.000,1.727,-21.606,115.051,162.476
-0.455,-1.206,1.824,-33.386,125.977,171.143
-0.549,-1.424,1.940,-51.514,140.015,183.960
-0.675,-1.653,1.990,-53.528,160.950,208.618
-0.887,-1.882,1.875,-36.499,187.988,246.155
-1.097,-2.031,1.593,-17.456,216.309,295.471
-1.318,-1.967,1.219,-12.207,239.441,355.408
-1.635,-1.711,0.838,-9.766,252.808,424.744
-2.026,-1.223,0.508,-11.963,254.395,496.704
-2.322,-0.606,0.197,-18.982,241.211,562.988
-2.532,0.249,-0.006,-36.804,218.933,616.394
-2.542,1.167,-0.075,-24.170,191.956,651.062
-2.554,1.936,-0.019,22.400,157.776,660.645
-2.549,2.749,0.099,66.528,119.568,638.184
-2.355,3.290,0.207,113.098,85.266,586.121
-2.121,3.490,0.415,145.264,59.509,511.292
-2.060,3.447,0.551,161.377,46.326,427.979
-2.113,3.273,0.620,165.588,46.143,344.238
-2.108,2.959,0.553,173.096,57.739,276.367
-1.862,3.842,-0.561,164.062,73.730,226.807
-1.730,4.000,-0.783,121.643,48.096,120.544
-1.632,2.543,-0.065,131.287,-10.925,-15.869
-1.662,1.947,0.287,115.051,-20.203,-30.212
-1.827,1.716,0.429,75.623,-7.263,5.432
-1.977,1.637,0.404,27.283,9.094,45.349
-1.872,1.905,0.235,-29.297,17.090,68.787
-1.729,2.509,0.081,-53.955,9.949,68.359
-1.557,3.000,-0.017,-35.583,-12.085,33.875
-1.479,3.336,-0.021,1.038,-45.898,-31.555
-1.439,3.420,0.036,38.635,-82.275,-115.723
-1.522,3.370,0.129,64.941,-111.511,-204.773
-1.629,3.215,0.171,74.585,-128.601,-290.527
-1.762,2.969,0.170,78.003,-135.010,-368.469
-1.898,2.691,0.170,66.589,-138.367,-437.988
-2.080,2.410,0.198,39.673,-144.409,-499.084
-2.291,2.120,0.243,11.475,-153.931,-551.636
-2.493,1.860,0.302,-7.263,-163.391,-596.680
-2.674,1.598,0.383,-14.893,-170.105,-635.559
-2.863,1.259,0.446,-18.433,-175.781,-671.265
-3.087,0.909,0.573,-30.518,-182.190,-702.942
-3.316,0.567,0.758,-41.016,-189.148,-724.182
-3.416,0.228,0.921,-34.912,-191.833,-731.079
-3.451,-0.009,0.989,-19.226,-187.256,-727.844
-3.517,-0.207,1.001,6.714,-178.528,-721.741
-3.616,-0.474,1.001,41.870,-168.823,-718.018
-3.589,-0.902,1.004,79.224,-158.264,-714.233
-3.321,-1.474,1.013,102.417,-147.095,-700.562
-2.913,-2.055,1.075,105.042,-135.620,-667.419
-2.371,-2.538,1.163,97.534,-125.366,-609.558
-1.750,-2.847,1.201,88.806,-116.821,-529.480
-1.553,-2.882,1.334,62.317,-110.596,-436.584
-1.523,-2.699,1.501,26.245,-104.248,-340.027
-1.410,-2.398,1.579,-2.625,-89.661,-243.469
-1.163,-1.995,1.591,-31.616,-68.420,-153.320
-0.965,-1.523,1.579,-67.261,-47.729,-76.843
-0.847,-1.040,1.521,-100.098,-29.968,-19.348
-0.793,-0.602,1.461,-116.821,-15.747,18.921
-0.593,-0.297,1.235,-120.667,-6.897,40.283
-0.476,0.537,1.468,-123.474,0.122,45.227
-0.344,0.324,1.114,-31.921,-3.296,43.274
-0.358,0.491,1.028,15.076,-20.996,26.978
-0.323,0.601,1.092,24.109,-36.072,-2.075
-0.293,0.532,1.168,45.776,-43.945,-31.067
-0.228,0.313,1.173,66.589,-42.847,-56.641
-0.167,0.015,1.167,83.496,-36.743,-72.083
-0.147,-0.221,1.159,76.172,-26.489,-74.646
-0.098,-0.324,1.116,58.289,-14.282,-63.171
0.005,-0.368,1.048,38.391,-4.395,-42.664
0.044,-0.354,1.015,18.433,2.075,-18.066
0.050,-0.231,0.997,-3.113,4.578,6.714
0.046,-0.045,0.991,-17.700,5.066,29.785
0.040,0.141,0.959,-22.766,4.211,46.387
0.064,0.323,0.939,-25.269,1.953,54.688
0.086,0.467,0.954,-25.208,-1.770,54.993
0.084,0.562,0.981,-19.409,-5.127,48.828
0.107,0.603,0.976,-8.545,-7.507,39.795
0.148,0.601,0.981,1.953,-8.728,29.724
0.168,0.570,0.998,8.057,-8.301,20.264
0.162,0.543,1.010,8.850,-7.202,12.512
0.161,0.528,1.029,7.202,-5.005,7.935
0.151,0.514,1.051,6.409,-1.831,4.761
0.123,0.491,1.053,7.507,2.075,0.610
0.111,0.468,1.032,11.841,6.897,-3.784
0.087,0.375,0.962,16.541,11.658,-7.202
0.112,0.342,0.906,12.329,15.625,-9.399
0.122,0.266,0.875,12.756,16.541,-8.789
0.109,0.208,0.844,9.460,15.076,-6.165
0.112,0.210,0.841,-1.221,13.672,-2.686
0.140,0.194,0.806,-4.333,13.306,3.418
0.191,0.208,0.766,-3.601,11.414,11.353
0.204,0.269,0.761,-4.944,6.958,19.043
0.192,0.335,0.787,-4.517,0.854,25.208
0.181,0.393,0.822,-2.808,-4.089,28.870
0.164,0.467,0.860,-2.136,-6.958,29.846
0.190,0.520,0.892,-1.831,-7.874,28.564
0.201,0.551,0.925,-1.038,-7.446,24.902
0.198,0.553,0.957,-0.305,-6.409,19.104
0.174,0.540,0.981,1.526,-4.639,13.062
0.162,0.526,0.984,4.089,-1.709,7.751
0.143,0.508,0.969,7.141,2.319,3.235
0.139,0.491,0.939,9.277,5.920,-1.099
0.151,0.452,0.913,9.766,7.996,-5.188
0.149,0.386,0.900,10.620,8.118,-9.644
0.139,0.324,0.897,11.902,7.874,-12.024
0.143,0.280,0.884,13.855,7.874,-11.475
0.148,0.236,0.863,15.625,8.301,-8.789
0.151,0.210,0.839,13.428,8.911,-4.822
0.158,0.224,0.819,7.019,8.789,0.549
0.165,0.260,0.807,1.404,7.385,6.775
0.154,0.293,0.810,-1.038,4.883,11.658
0.147,0.335,0.827,-2.808,2.075,14.648
0.166,0.413,0.837,-3.174,-0.488,16.785
0.175,0.451,0.842,0.366,-2.991,17.029
0.135,0.474,0.871,2.930,-5.188,13.733
0.144,0.456,0.892,2.930,-7.141,8.240

-0.361,-1.094,1.745,-32.654,40.039,41.870
-0.400,-1.329,1.869,-54.382,63.660,67.688
-0.424,-1.616,1.991,-66.772,91.431,102.295
-0.514,-1.732,1.995,-77.454,120.422,141.052
-0.598,-1.701,1.890,-77.393,150.574,184.814
-0.680,-1.636,1.738,-62.317,177.063,229.248
-0.746,-1.529,1.571,-46.204,194.214,268.066
-0.801,-1.379,1.412,-29.846,202.515,302.551
-0.904,-1.216,1.285,-9.399,205.078,334.839
-1.038,-1.095,1.187,13.000,203.125,364.807
-1.133,-0.920,1.094,26.489,198.608,393.311
-1.329,-0.713,1.023,29.785,195.251,423.523
-1.481,-0.522,0.948,24.353,195.679,455.872
-1.707,-0.165,0.778,1.282,200.562,486.755
-1.949,0.199,0.627,-28.931,209.167,515.808
-2.062,0.600,0.506,-45.715,217.285,539.734
-2.162,1.075,0.441,-39.978,219.055,552.612
-2.253,1.502,0.397,-4.272,210.937,552.307
-2.356,1.883,0.279,44.495,195.374,539.673
-2.350,2.239,0.117,86.914,177.673,518.982
-2.200,2.537,-0.043,110.474,159.973,492.432
-2.135,2.784,-0.067,115.723,137.085,456.116
-2.086,2.969,-0.059,114.136,109.314,409.180
-1.984,3.141,-0.052,113.525,82.886,358.521
-1.888,3.325,-0.084,110.657,62.134,306.030
-1.819,3.521,-0.153,101.563,45.349,251.953
-1.688,4.000,-0.303,80.627,28.687,193.115
-1.597,4.000,-0.229,61.218,8.301,103.455
-1.584,3.441,-0.189,57.434,-14.343,11.963
-1.720,3.105,-0.110,28.992,-39.063,-46.570
-1.816,2.581,0.096,-8.423,-61.462,-98.816
-1.925,1.966,0.357,-50.537,-76.050,-143.555
-1.931,1.277,0.608,-78.308,-81.055,-173.950
-1.879,0.730,0.744,-85.205,-76.172,-186.462
-1.712,0.431,0.677,-66.406,-63.538,-180.237
-1.536,0.447,0.465,-31.189,-51.331,-159.790
-1.402,0.746,0.185,10.620,-49.072,-134.949
-1.295,1.242,-0.068,41.321,-60.974,-117.432
-1.120,1.756,-0.303,54.016,-84.167,-115.845
-1.020,2.227,-0.428,55.847,-114.258,-134.949
-1.007,2.546,-0.494,42.908,-147.217,-176.758
-0.992,2.667,-0.492,22.644,-182.190,-236.084
-1.100,2.718,-0.358,-4.150,-218.689,-305.786
-1.267,2.598,-0.159,-21.606,-254.639,-375.916
-1.465,2.431,0.085,-30.701,-286.804,-441.772
-1.800,2.224,0.351,-30.823,-312.988,-501.221
-2.182,1.968,0.628,-15.259,-329.651,-555.908
-2.581,1.722,0.907,5.310,-331.299,-609.131
-2.953,1.391,1.178,32.593,-319.397,-661.560
-3.277,0.899,1.372,71.289,-296.814,-708.862
-3.620,0.429,1.510,103.027,-264.221,-743.896
-3.829,0.064,1.594,118.103,-226.013,-761.902
-3.917,-0.196,1.505,128.418,-187.439,-766.052
-3.988,-0.500,1.266,141.724,-154.724,-764.282
-3.856,-0.956,1.007,151.184,-134.216,-760.742
-3.471,-1.625,0.851,141.602,-129.822,-750.000
-2.969,-2.381,0.887,109.558,-136.597,-718.140
-2.294,-3.086,1.048,70.740,-145.691,-653.015
-1.726,-3.467,1.228,32.349,-153.748,-552.002
-1.242,-3.388,1.667,-4.150,-156.616,-426.147
-0.947,-3.160,1.818,-20.874,-147.522,-294.617
-0.924,-2.857,1.731,12.939,-130.249,-162.964
-0.863,-2.166,1.661,40.894,-109.985,-45.471
-0.748,-1.271,1.483,32.349,-85.876,43.701
-0.691,-0.524,1.268,13.672,-66.162,101.807
-0.620,0.128,1.148,-12.207,-55.786,128.052
-0.560,0.553,1.123,-27.100,-54.504,126.343
-0.528,0.765,1.170,-28.992,-58.044,101.501
-0.342,0.921,1.280,-24.170,-58.228,60.608
-0.248,0.741,1.322,1.831,-53.528,17.212
-0.164,0.551,1.336,21.423,-42.725,-18.860
-0.092,0.279,1.274,35.645,-27.527,-41.687
-0.012,0.078,1.203,36.072,-13.000,-48.096
0.054,-0.030,1.136,24.658,-1.831,-41.626
0.078,-0.070,1.068,15.991,6.836,-27.405
0.071,-0.042,1.018,11.658,12.146,-10.986
0.036,0.048,0.975,6.042,14.099,4.761
0.021,0.223,0.923,-1.587,13.916,19.531
0.069,0.336,0.873,-7.690,11.719,29.236
0.113,0.436,0.893,-17.212,6.714,31.372
0.147,0.531,0.924,-20.935,0.305,29.175
0.137,0.598,0.975,-13.733,-3.479,25.452
0.122,0.636,0.980,2.441,-4.822,20.325
0.124,0.630,0.978,10.803,-5.554,12.573
0.134,0.614,1.028,11.902,-6.226,4.028
0.140,0.561,1.092,13.123,-5.188,-3.479
0.126,0.500,1.120,16.785,-0.916,-9.155
0.140,0.408,1.090,23.926,6.226,-12.451
0.138,0.329,1.033,26.855,13.123,-13.245
0.139,0.270,0.974,22.095,18.921,-12.268
0.155,0.228,0.911,13.062,23.376,-8.118
0.167,0.231,0.855,3.357,25.696,-1.831
0.165,0.272,0.806,-3.357,25.574,4.639
0.177,0.303,0.755,-4.883,22.888,9.338
0.194,0.378,0.727,-5.005,18.860,12.512
0.196,0.431,0.704,-0.488,13.428,14.160
0.192,0.474,0.717,4.456,6.165,12.878
0.179,0.486,0.745,9.338,-1.526,9.460
0.168,0.486,0.800,11.719,-6.409,4.883
0.161,0.457,0.858,12.329,-8.972,0.061
0.150,0.408,0.908,13.123,-9.705,-3.418
0.135,0.340,0.936,12.329,-8.362,-5.615
0.139,0.281,0.954,8.972,-5.737,-6.165
0.148,0.228,0.959,4.700,-2.747,-4.272
0.167,0.210,0.949,1.526,0.977,-0.488
0.181,0.229,0.922,0.854,4.089,5.310
0.181,0.273,0.880,2.014,5.737,11.353
0.183,0.330,0.839,1.465,6.287,15.869
0.201,0.397,0.806,-0.427,5.798,18.555
0.210,0.462,0.792,-1.343,4.089,19.348
0.215,0.514,0.800,0.000,0.488,17.700
0.194,0.550,0.836,2.380,-3.418,13.367
0.174,0.560,0.880,5.432,-5.737,6.470
0.159,0.514,0.917,9.766,-6.165,-1.160
0.147,0.436,0.941,13.184,-5.249,-7.690
0.158,0.356,0.947,15.808,-3.601,-12.390
0.153,0.276,0.937,18.066,-1.343,-13.916
0.153,0.225,0.914,17.090,1.160,-12.390
0.174,0.188,0.887,13.733,3.845,-8.179

-0.285,-0.871,1.766,-48.096,62.561,90.820
-0.347,-0.990,1.888,-58.228,83.862,114.380
-0.432,-1.066,1.945,-63.904,109.924,140.930
-0.515,-1.142,1.921,-62.561,138.367,169.800
-0.588,-1.150,1.841,-57.373,165.710,200.195
-0.658,-1.098,1.717,-47.974,189.697,232.239
-0.723,-1.027,1.569,-31.921,207.886,264.282
-0.817,-0.942,1.435,-17.883,219.421,293.762
-0.936,-0.868,1.298,-5.554,226.685,321.350
-1.126,-0.762,1.096,8.362,233.093,350.403
-1.364,-0.646,0.794,21.851,239.136,383.362
-1.605,-0.306,0.468,13.550,242.676,419.495
-1.776,0.084,0.204,2.319,240.112,455.078
-1.883,0.424,0.088,4.456,226.257,484.863
-2.034,0.824,0.092,9.705,202.271,505.615
-2.227,1.201,0.131,30.151,176.392,517.639
-2.310,1.492,0.165,57.312,155.396,519.409
-2.332,1.714,0.259,76.965,141.724,511.353
-2.396,1.860,0.331,89.905,133.789,496.826
-2.501,1.929,0.395,101.196,130.493,480.713
-2.616,2.086,0.398,107.117,130.981,466.431
-2.704,2.516,0.221,119.202,135.925,454.590
-1.638,4.000,-2.598,143.799,137.146,431.458
-1.466,4.000,-0.929,144.043,60.730,160.583
-1.242,3.501,-0.324,281.860,-2.075,-43.579
-1.131,3.053,-0.211,252.930,-18.494,-45.837
-1.453,2.586,-0.063,167.786,-26.428,-15.503
-1.646,2.654,-0.231,39.124,-32.837,11.414
-1.579,3.204,-0.253,-77.332,-53.406,1.038
-1.706,3.494,-0.198,-115.295,-85.388,-60.730
-1.812,3.329,-0.030,-93.750,-124.939,-158.142
-1.893,2.961,0.297,-51.880,-164.185,-262.390
-2.023,2.455,0.603,-0.061,-189.209,-347.107
-2.084,2.088,0.827,36.194,-187.134,-403.381
-2.020,1.848,0.828,56.152,-161.743,-436.218
-1.943,1.743,0.606,64.575,-129.211,-456.116
-1.941,1.702,0.255,66.345,-106.262,-474.792
-1.972,1.590,-0.016,66.650,-103.333,-498.535
-2.029,1.433,-0.121,53.223,-119.446,-526.672
-2.096,1.190,-0.077,27.283,-145.874,-553.345
-2.157,0.937,0.047,0.977,-173.218,-572.510
-2.235,0.732,0.197,-18.616,-195.496,-584.351
-2.350,0.580,0.335,-28.809,-212.769,-590.637
-2.448,0.501,0.476,-29.358,-227.905,-593.811
-2.573,0.435,0.622,-11.963,-241.638,-597.839
-2.786,0.359,0.772,26.733,-249.878,-606.567
-2.925,0.094,0.908,85.571,-249.390,-621.033
-2.904,-0.375,1.051,146.729,-238.525,-635.437
-2.786,-0.961,1.195,190.125,-215.515,-638.062
-2.572,-1.626,1.290,208.923,-181.396,-617.798
-2.219,-2.275,1.329,197.205,-142.212,-570.312
-1.802,-2.707,1.327,154.419,-105.835,-497.375
-1.455,-2.869,1.283,98.877,-78.552,-404.724
-1.218,-2.685,1.258,37.109,-61.401,-303.223
-1.144,-2.253,1.226,-21.912,-51.636,-205.139
-1.027,-1.747,1.202,-70.496,-45.044,-120.422
-0.824,-1.220,1.229,-112.000,-39.612,-55.420
-0.711,-0.709,1.266,-137.451,-36.438,-12.268
-0.644,-0.243,1.291,-136.902,-34.790,11.719
-0.596,0.122,1.301,-116.699,-33.630,19.714
-0.572,0.254,1.221,-82.825,-33.997,13.794
-0.606,0.318,1.195,-53.955,-35.828,-3.357
-0.423,0.469,1.223,-20.874,-35.034,-26.062
-0.387,0.360,1.232,47.180,-42.297,-46.265
-0.365,0.176,1.307,67.932,-47.302,-68.176
-0.353,-0.044,1.375,78.979,-43.884,-81.360
-0.254,-0.307,1.326,79.773,-31.799,-80.688
-0.183,-0.486,1.265,68.909,-17.456,-65.125
-0.131,-0.516,1.209,37.842,-4.089,-41.077
-0.117,-0.407,1.152,5.737,7.874,-13.977
-0.072,-0.213,1.074,-19.348,17.761,10.681
-0.005,0.004,0.984,-30.701,23.193,30.396
0.007,0.220,0.891,-31.250,23.499,43.213
0.054,0.443,0.844,-28.687,19.592,48.523
0.067,0.605,0.841,-19.287,12.207,45.471
0.057,0.714,0.858,-6.226,2.930,34.485
0.042,0.709,0.926,8.667,-4.089,19.287
0.024,0.666,1.010,16.602,-7.324,2.502
0.043,0.542,1.062,23.743,-6.775,-11.597
0.077,0.371,1.070,29.602,-2.563,-20.447
0.098,0.250,1.036,27.649,4.456,-21.362
0.128,0.197,0.982,17.700,11.963,-15.564
0.154,0.205,0.927,5.798,17.639,-5.798
0.145,0.267,0.880,-3.967,20.264,3.235
0.095,0.361,0.831,-11.047,20.203,10.620
0.102,0.459,0.791,-16.724,18.921,15.076
0.127,0.546,0.759,-15.747,15.930,15.259
0.126,0.592,0.765,-8.911,9.766,10.803
0.088,0.566,0.769,1.770,2.075,3.906
0.095,0.565,0.806,7.568,-3.357,-3.540
0.094,0.456,0.839,16.479,-6.775,-9.521
0.087,0.388,0.883,18.372,-8.362,-14.282
0.104,0.287,0.921,18.860,-7.263,-16.113
0.112,0.202,0.922,19.714,-4.578,-13.550
0.120,0.159,0.902,17.273,-0.977,-7.385
0.132,0.155,0.861,12.390,2.747,0.732
0.122,0.221,0.817,4.517,4.944,10.681
0.124,0.324,0.783,-3.174,4.761,19.836
0.138,0.417,0.798,-8.118,1.770,25.024
0.132,0.510,0.846,-9.827,-2.014,25.024
0.113,0.538,0.884,-6.165,-4.150,21.362
0.104,0.545,0.904,-0.671,-4.333,15.503
0.134,0.559,0.903,3.174,-3.174,9.338
0.127,0.525,0.904,6.226,-1.709,3.540
0.121,0.514,0.918,5.127,0.061,-2.197
0.109,0.432,0.918,9.033,0.854,-6.531
0.084,0.380,0.909,11.536,1.831,-9.460
0.094,0.324,0.896,11.353,3.113,-9.583
0.100,0.277,0.889,9.888,3.723,-7.385
0.088,0.253,0.910,6.409,3.296,-4.517
0.072,0.253,0.934,2.808,3.174,-1.160
0.082,0.266,0.931,0.244,4.578,3.052
0.101,0.280,0.898,0.427,6.592,7.263
0.117,0.343,0.856,-0.305,7.690,11.292
0.138,0.419,0.816,1.160,6.653,14.465
0.139,0.475,0.817,4.150,3.540,14.465
0.112,0.505,0.849,5.615,-0.732,10.193
0.094,0.485,0.896,8.362,-3.540,4.272
0.093,0.434,0.930,12.207,-3.967,-0.427

-0.324,-1.157,1.675,-31.555,60.913,63.354
-0.402,-1.285,1.787,-51.514,81.116,90.759
-0.468,-1.376,1.851,-57.373,104.736,126.282
-0.554,-1.342,1.898,-61.096,128.479,162.842
-0.631,-1.271,1.859,-59.753,150.940,196.533
-0.650,-1.198,1.717,-51.147,171.631,224.121
-0.704,-1.151,1.556,-37.354,188.782,246.155
-0.808,-1.124,1.412,-25.513,199.524,266.418
-0.941,-1.135,1.298,-14.954,204.468,290.222
-1.106,-1.137,1.190,-7.629,207.458,320.251
-1.306,-1.048,1.040,-4.700,212.708,357.910
-1.532,-0.858,0.862,-6.775,220.337,402.283
-1.789,-0.571,0.632,-13.672,226.257,449.890
-2.010,-0.100,0.446,-33.936,227.478,492.737
-2.192,0.409,0.375,-55.908,223.267,526.794
-2.339,0.884,0.375,-60.120,215.149,550.842
-2.482,1.400,0.353,-46.509,207.947,561.096
-2.591,1.883,0.246,-9.094,203.918,557.922
-2.501,2.205,0.133,41.809,198.547,542.236
-2.496,2.528,0.020,82.947,186.157,513.428
-2.526,2.880,-0.172,111.511,169.800,478.943
-2.437,3.264,-0.385,138.672,150.757,442.749
-2.339,3.827,-0.594,160.706,127.136,402.649
-1.811,4.000,-1.780,167.542,91.675,324.463
-1.467,4.000,-0.838,183.594,13.550,60.364
-1.359,3.423,-0.597,195.679,-22.034,-47.974
-1.524,3.033,-0.426,115.295,-39.246,-44.067
-1.876,3.107,-0.469,31.189,-53.284,-22.766
-1.830,3.433,-0.446,-63.293,-71.655,-39.429
-1.822,3.512,-0.315,-110.535,-94.727,-95.764
-1.887,3.319,-0.072,-111.267,-123.535,-169.983
-1.959,2.913,0.282,-87.646,-154.175,-242.554
-2.093,2.457,0.665,-49.133,-172.791,-299.622
-2.173,2.115,0.867,-13.245,-164.124,-337.280
-2.031,1.936,0.720,20.569,-130.371,-357.117
-1.862,1.896,0.199,52.429,-93.811,-368.469
-1.707,1.948,-0.507,76.660,-78.003,-380.737
-1.592,2.082,-1.062,77.942,-93.201,-402.893
-1.687,2.146,-1.365,56.213,-139.282,-437.622
-1.921,2.093,-1.374,24.414,-207.397,-479.858
-2.252,1.943,-1.120,-4.150,-281.616,-522.339
-2.655,1.750,-0.656,-27.771,-349.915,-561.951
-3.017,1.468,0.081,-42.419,-404.297,-598.389
-3.524,1.209,0.820,-42.786,-437.012,-630.859
-3.781,0.994,1.482,-15.808,-433.289,-656.189
-3.920,0.675,1.917,54.810,-397.034,-682.800
-3.980,0.102,2.119,147.644,-340.515,-712.463
-4.000,-0.570,2.153,231.628,-268.494,-733.582
-3.850,-1.400,1.969,290.344,-188.354,-731.812
-3.398,-2.325,1.597,317.993,-109.985,-698.059
-2.817,-3.106,1.187,284.119,-45.105,-630.310
-2.168,-3.562,0.884,187.561,-7.263,-531.067
-1.658,-3.613,0.865,52.856,0.244,-407.654
-1.445,-3.307,1.089,-77.576,-10.193,-277.100
-1.365,-2.753,1.329,-165.955,-19.531,-156.250
-1.196,-2.053,1.332,-204.529,-15.564,-53.772
-0.911,-1.184,1.175,-205.200,-6.897,23.132
-0.776,-0.444,1.105,-182.983,-7.324,70.007
-0.625,0.474,0.974,-160.767,-18.311,83.008
-0.535,0.530,0.746,-58.594,-41.443,78.247
-0.566,0.527,0.781,40.894,-78.064,59.326
-0.499,0.627,1.041,59.937,-107.056,25.269
-0.453,0.480,1.322,75.806,-119.629,-9.033
-0.400,0.246,1.552,87.036,-111.938,-36.072
-0.295,0.013,1.644,84.595,-87.646,-50.354
-0.232,-0.257,1.572,79.651,-56.030,-47.607
-0.166,-0.262,1.504,42.297,-23.132,-35.217
-0.090,-0.238,1.357,3.845,4.395,-17.273
-0.044,-0.154,1.176,-20.386,24.841,2.441
-0.013,0.009,0.999,-40.283,37.231,20.630
0.022,0.206,0.848,-51.331,40.771,36.011
0.057,0.403,0.740,-49.500,35.889,45.715
0.067,0.556,0.678,-34.180,24.597,47.668
0.081,0.641,0.649,-12.207,9.583,43.274
0.102,0.672,0.680,5.493,-5.249,35.767
0.140,0.681,0.792,13.489,-17.578,27.466
0.153,0.648,0.931,18.677,-26.062,20.142
0.133,0.613,1.057,22.827,-28.137,13.977
0.127,0.602,1.149,23.437,-23.071,9.399
0.108,0.573,1.188,23.926,-12.329,5.554
0.098,0.544,1.173,19.714,0.244,1.953
0.098,0.526,1.073,13.367,13.672,-0.366
0.095,0.481,0.961,11.169,23.682,-0.488
0.107,0.448,0.859,5.127,28.076,-0.183
0.093,0.454,0.814,-2.625,27.771,0.793
0.118,0.475,0.752,-8.728,25.452,2.930
0.172,0.465,0.702,-10.132,21.362,6.653
0.195,0.500,0.686,-6.226,15.015,10.193
0.187,0.550,0.692,1.099,7.385,12.390
0.165,0.574,0.717,8.728,0.000,12.817
0.148,0.593,0.767,10.925,-5.188,11.047
0.135,0.602,0.839,9.521,-8.179,7.935
0.116,0.577,0.906,9.460,-9.277,3.906
0.099,0.540,0.956,10.254,-7.080,0.183
0.098,0.498,0.974,12.207,-3.357,-2.197
0.112,0.460,0.958,14.404,1.465,-2.808
0.129,0.429,0.927,14.587,6.409,-2.319
0.138,0.420,0.886,11.414,10.620,-0.305
0.150,0.423,0.851,7.141,13.062,3.113
0.144,0.439,0.828,2.441,13.611,6.714
0.118,0.484,0.796,-1.221,13.306,9.705
0.116,0.527,0.759,-4.150,13.000,12.024
0.143,0.568,0.739,-7.874,11.902,12.024
0.151,0.587,0.749,-8.545,8.423,9.216
0.133,0.571,0.784,-4.517,3.418,4.272
0.115,0.517,0.825,2.075,-0.549,-0.549
0.103,0.452,0.858,7.629,-1.953,-3.174
0.087,0.403,0.867,10.315,-1.709,-3.601
0.081,0.399,0.859,9.888,-0.122,-2.441
0.097,0.392,0.852,7.874,1.648,0.000
0.111,0.383,0.846,4.761,2.686,2.136
0.107,0.385,0.845,2.136,3.296,3.662
0.111,0.372,0.849,2.319,3.662,5.981
0.102,0.370,0.851,2.502,4.211,8.606
0.110,0.368,0.845,1.953,4.639,11.414
0.135,0.399,0.817,0.549,5.432,14.893
0.170,0.474,0.786,-0.427,6.226,18.677
0.164,0.535,0.761,-0.183,5.432,20.996
0.169,0.596,0.765,-0.305,2.319,19.958

-0.580,-0.985,1.910,-22.156,87.585,78.796
-0.688,-1.313,2.018,-43.213,115.601,100.830
-0.750,-1.556,2.011,-62.744,150.574,134.766
-0.798,-1.599,1.880,-74.951,186.768,180.603
-0.837,-1.438,1.636,-73.181,216.736,233.215
-0.881,-1.188,1.365,-62.256,236.877,284.119
-0.955,-0.826,1.111,-53.101,246.216,328.003
-1.039,-0.387,0.837,-45.349,250.000,362.549
-1.093,0.163,0.391,-38.635,251.404,387.573
-1.049,0.622,-0.064,-36.072,247.131,403.137
-0.923,0.927,-0.267,-43.213,227.112,401.550
-0.844,1.147,-0.177,-60.059,190.063,382.812
-0.840,1.171,0.135,-63.538,151.123,359.497
-0.944,0.941,0.535,-51.270,127.197,340.576
-1.203,0.720,0.844,-40.833,130.554,333.984
-1.439,0.587,0.963,-31.067,161.255,346.375
-1.688,0.621,0.930,-22.644,204.834,372.986
-1.984,0.915,0.753,-4.333,244.324,404.724
-2.227,1.462,0.334,47.363,270.569,435.242
-2.205,2.047,-0.139,125.305,277.466,455.688
-2.066,2.640,-0.569,190.063,257.019,453.308
-1.885,3.252,-0.912,212.097,214.600,428.284
-1.595,3.797,-1.210,198.181,163.025,385.498
-1.322,4.000,-1.420,157.654,108.521,324.402
-1.146,4.000,-1.540,109.009,51.758,247.742
-1.023,4.000,-1.522,65.979,-8.301,157.410
-1.127,4.000,-1.313,29.846,-71.045,54.016
-1.341,4.000,-0.949,8.118,-128.906,-52.002
-1.546,4.000,-0.510,-4.089,-173.340,-148.071
-1.775,3.502,0.008,-15.259,-200.134,-227.905
-2.012,2.787,0.544,-20.203,-203.186,-289.795
-2.197,1.994,0.976,-21.667,-180.359,-331.909
-2.148,1.361,1.125,-24.963,-137.634,-349.976
-1.860,0.858,0.895,-11.475,-90.698,-343.262
-1.561,0.609,0.409,6.042,-56.946,-317.810
-1.306,0.653,-0.171,14.709,-44.312,-283.447
-1.153,0.958,-0.715,11.841,-54.382,-250.183
-1.016,1.443,-1.228,1.404,-86.121,-226.501
-0.910,1.977,-1.645,-8.545,-140.991,-222.107
-0.982,2.398,-1.814,-18.311,-216.858,-242.981
-1.263,2.717,-1.619,-27.405,-306.641,-287.781
-1.635,2.825,-1.104,-24.902,-396.423,-346.924
-2.143,2.720,-0.470,-4.333,-469.360,-410.461
-2.693,2.430,0.299,19.775,-512.939,-476.196
-3.125,2.023,1.287,33.386,-520.264,-544.312
-3.367,1.551,2.107,46.753,-487.915,-603.760
-3.403,1.119,2.538,86.853,-411.011,-644.531
-3.436,0.601,2.510,156.067,-311.523,-672.791
-3.512,0.073,2.168,224.548,-216.858,-691.589
-3.557,-0.461,1.673,265.320,-135.620,-697.632
-3.484,-1.172,1.086,279.541,-70.740,-685.547
-3.155,-2.069,0.555,238.037,-29.907,-651.062
-2.554,-2.862,0.358,121.582,-20.325,-588.745
-1.897,-3.294,0.550,-30.396,-41.992,-492.004
-1.491,-3.267,0.972,-143.005,-78.613,-364.868
-1.275,-2.827,1.381,-180.237,-108.215,-223.694
-1.090,-2.000,1.643,-188.110,-118.652,-94.604
-0.984,-0.629,1.811,-184.998,-110.657,-0.488
-0.856,-0.284,1.400,-67.017,-107.422,65.063
-0.830,0.309,1.357,0.122,-118.835,88.806
-0.795,0.747,1.514,23.621,-130.493,75.562
-0.858,0.818,1.705,49.622,-132.690,41.748
-0.836,0.714,1.897,59.021,-117.615,-2.441
-0.564,0.668,1.980,57.190,-84.839,-45.837
-0.461,0.188,1.786,80.872,-46.143,-73.425
-0.366,-0.054,1.570,76.782,-9.949,-82.458
-0.233,-0.189,1.326,45.227,19.348,-75.806
-0.105,-0.273,1.110,15.564,40.405,-58.105
-0.064,-0.266,0.944,-11.108,53.345,-36.438
-0.045,-0.150,0.811,-31.921,58.594,-14.771
-0.014,0.004,0.662,-37.537,57.739,4.944
0.044,0.168,0.532,-32.959,50.781,21.118
0.082,0.328,0.461,-25.085,37.964,31.128
0.108,0.467,0.436,-12.695,19.714,35.339
0.163,0.581,0.447,1.892,-0.671,35.889
0.197,0.664,0.558,14.038,-20.691,33.813
0.167,0.718,0.744,20.264,-37.048,28.320
0.132,0.727,0.931,25.757,-45.654,20.996
0.108,0.705,1.066,31.189,-45.044,13.184
0.098,0.660,1.139,33.691,-36.499,5.920
0.127,0.642,1.165,31.311,-23.560,0.732
0.131,0.552,1.134,27.771,-10.803,-2.441
0.128,0.536,1.113,15.930,0.916,-4.456
0.133,0.488,1.057,5.005,12.329,-4.578
0.136,0.474,0.977,-0.854,21.545,-2.747
0.147,0.488,0.906,-5.859,27.283,0.305
0.142,0.501,0.829,-5.371,29.175,2.686
0.134,0.509,0.752,-0.488,28.442,3.662
0.146,0.503,0.684,5.737,24.963,3.784
0.168,0.499,0.644,11.108,19.348,3.296
0.177,0.487,0.638,16.479,11.902,2.991
0.181,0.467,0.668,19.287,4.761,2.502
0.178,0.449,0.718,19.531,-0.793,3.296
0.182,0.466,0.767,18.677,-3.845,5.859
0.176,0.508,0.811,17.151,-4.395,9.094
0.161,0.562,0.841,13.489,-3.296,10.315
0.156,0.577,0.861,10.254,-0.916,8.118
0.154,0.570,0.872,7.812,0.916,3.906
0.148,0.535,0.854,7.507,3.235,0.122
0.169,0.497,0.833,8.057,5.676,-1.831
0.182,0.454,0.824,8.484,5.188,-2.563
0.195,0.419,0.830,7.874,3.540,-2.502
0.199,0.393,0.826,7.874,3.235,-0.549
0.196,0.404,0.797,9.277,4.089,4.089
0.187,0.441,0.766,8.423,4.028,9.521
0.202,0.493,0.750,5.310,2.686,13.489
0.201,0.530,0.766,3.052,0.366,15.015
0.185,0.553,0.806,2.686,-1.831,13.367
0.180,0.570,0.837,4.578,-3.540,10.803
0.176,0.566,0.864,7.996,-3.479,7.996
0.163,0.553,0.886,9.521,-2.136,4.944
0.153,0.528,0.902,9.216,-0.366,1.709
0.156,0.495,0.896,9.521,1.587,-0.977
0.160,0.465,0.867,10.010,5.066,-1.953
0.165,0.443,0.813,8.789,8.545,-0.305
0.189,0.455,0.774,5.493,9.705,2.686
0.190,0.476,0.761,3.479,7.874,5.066
0.181,0.482,0.766,3.174,4.822,6.714
0.173,0.485,0.785,3.418,1.587,7.568

-0.411,-0.720,1.795,-36.072,110.352,145.264
-0.486,-0.736,1.777,-50.537,135.376,168.396
-0.561,-0.718,1.643,-53.040,163.452,195.007
-0.577,-0.658,1.450,-48.096,187.439,222.595
-0.616,-0.480,1.263,-40.649,202.576,249.878
-0.668,-0.268,1.109,-25.940,208.984,276.428
-0.752,-0.031,1.000,-10.620,209.290,299.011
-0.818,0.097,0.997,-0.183,207.642,315.247
-0.860,0.110,1.006,8.545,206.787,328.064
-1.007,0.221,0.971,7.141,211.548,342.407
-1.135,0.263,0.927,0.549,222.046,360.352
-1.262,0.379,0.777,-15.198,234.497,377.930
-1.409,0.746,0.396,-36.072,247.253,393.921
-1.321,1.214,-0.073,-39.429,256.592,407.776
-1.140,1.735,-0.463,-26.123,246.765,409.546
-0.981,2.193,-0.659,-7.385,211.426,391.602
-0.905,2.489,-0.610,13.916,158.569,352.905
-0.895,2.545,-0.357,34.912,104.980,301.025
-0.925,2.409,-0.034,53.406,64.941,248.474
-1.054,2.071,0.263,67.688,45.105,203.796
-1.142,1.729,0.478,72.388,45.898,172.668
-1.172,1.424,0.537,66.284,60.791,159.424
-1.224,1.266,0.442,53.101,79.590,161.438
-1.250,1.280,0.212,39.673,95.032,172.729
-1.201,1.440,-0.050,25.330,100.708,184.631
-1.182,1.696,-0.252,10.681,95.032,189.087
-1.177,1.945,-0.383,3.113,79.407,183.167
-1.107,2.216,-0.472,0.244,57.495,166.992
-1.106,2.529,-0.572,8.972,32.532,142.273
-1.090,2.748,-0.624,33.875,3.540,107.239
-1.144,2.776,-0.585,57.434,-31.616,59.875
-1.201,2.714,-0.434,60.547,-67.932,8.057
-1.264,2.611,-0.270,54.565,-96.802,-38.025
-1.346,2.521,-0.116,51.941,-113.464,-77.759
-1.426,2.418,-0.046,49.744,-120.972,-113.647
-1.439,2.327,-0.017,42.297,-124.817,-148.743
-1.454,2.291,-0.013,35.156,-128.052,-184.143
-1.481,2.228,-0.053,39.795,-131.042,-218.079
-1.496,2.180,-0.134,48.767,-135.071,-250.977
-1.486,2.132,-0.281,53.955,-142.517,-283.936
-1.459,2.077,-0.430,57.983,-156.250,-317.932
-1.480,1.993,-0.568,63.171,-178.406,-353.149
-1.552,1.865,-0.648,67.627,-209.595,-390.930
-1.674,1.744,-0.668,65.796,-246.948,-430.847
-1.769,1.620,-0.595,59.509,-286.804,-469.727
-1.918,1.513,-0.469,52.551,-326.233,-505.859
-2.215,1.422,-0.203,43.762,-363.342,-542.847
-2.594,1.255,0.331,21.729,-396.423,-581.238
-3.057,0.946,1.232,-14.526,-416.321,-614.746
-3.530,0.567,2.251,-54.016,-404.785,-637.329
-3.857,0.263,3.006,-87.341,-349.426,-650.635
-3.917,-0.052,3.107,-78.613,-263.306,-658.142
-3.680,-0.515,2.590,-14.404,-181.213,-660.950
-3.254,-1.254,1.879,67.383,-130.554,-656.982
-2.642,-2.075,1.188,120.300,-113.647,-634.644
-2.001,-2.277,1.096,103.821,-119.263,-582.214
-1.502,-2.568,0.958,71.045,-138.672,-495.605
-1.379,-2.813,0.926,68.604,-165.466,-373.108
-1.243,-2.400,1.331,14.343,-187.927,-249.390
-1.086,-1.824,1.774,-38.147,-191.101,-143.982
-0.901,-1.295,2.109,-45.532,-171.936,-62.866
-0.693,-0.725,2.255,-22.034,-138.855,-5.737
-0.684,-0.249,2.095,23.010,-101.746,31.189
-0.616,0.316,1.863,30.212,-63.721,41.077
-0.489,0.563,1.521,45.776,-33.875,31.921
-0.365,0.626,1.251,54.871,-17.151,9.766
-0.276,0.564,1.081,53.589,-9.827,-16.602
-0.212,0.384,0.981,49.255,-5.493,-37.476
-0.105,0.227,0.921,33.569,-0.793,-46.875
0.014,0.118,0.876,14.282,5.249,-42.908
0.087,0.118,0.872,-5.127,10.986,-30.212
0.089,0.197,0.865,-17.151,15.137,-14.709
0.108,0.300,0.830,-18.982,17.090,-1.831
0.115,0.414,0.792,-11.780,16.052,6.592
0.110,0.487,0.758,-0.549,12.085,10.803
0.109,0.519,0.752,11.108,5.615,12.146
0.099,0.525,0.798,15.686,-0.854,11.658
0.095,0.518,0.860,14.832,-4.639,11.353
0.096,0.502,0.904,13.306,-4.333,12.573
0.114,0.506,0.908,10.681,-0.854,15.137
0.146,0.531,0.883,6.897,3.479,18.555
0.179,0.586,0.843,2.930,6.958,22.339
0.200,0.679,0.797,-0.122,9.277,24.963
0.210,0.765,0.747,1.343,9.583,24.475
0.193,0.809,0.711,5.737,7.996,19.775
0.187,0.815,0.691,9.705,5.493,12.024
0.191,0.793,0.695,11.963,2.991,3.296
0.169,0.732,0.733,13.794,0.977,-4.822
0.137,0.632,0.778,15.381,0.183,-12.939
0.127,0.497,0.799,16.907,1.648,-18.677
0.117,0.365,0.773,16.724,5.737,-19.287
0.145,0.300,0.731,11.292,9.766,-13.489
0.182,0.331,0.689,3.235,11.292,-3.906
0.185,0.386,0.681,-1.953,10.498,5.615
0.177,0.446,0.698,-5.188,8.179,12.573
0.190,0.489,0.725,-6.592,6.531,16.846
0.185,0.528,0.724,-2.563,5.920,20.630
0.180,0.579,0.691,2.258,5.493,24.109
0.196,0.652,0.668,3.479,3.723,26.428
0.229,0.711,0.681,2.625,-0.549,25.757
0.222,0.758,0.737,2.686,-5.371,20.996
0.184,0.759,0.800,5.005,-8.301,12.817
0.145,0.733,0.839,9.338,-7.141,3.784
0.173,0.664,0.837,13.916,-3.845,-3.601
0.187,0.559,0.815,17.395,0.854,-9.399
0.208,0.461,0.779,16.296,5.310,-12.878
0.217,0.401,0.741,12.817,8.423,-10.925
0.215,0.391,0.700,9.644,10.132,-4.333
0.198,0.431,0.661,5.798,9.644,3.601
0.192,0.493,0.646,0.183,6.775,10.376
0.189,0.546,0.663,-5.371,2.380,14.465
0.184,0.607,0.708,-9.094,-2.075,16.174
0.205,0.678,0.763,-8.057,-5.249,16.418
0.211,0.718,0.794,-1.587,-7.751,13.977
0.187,0.740,0.829,5.188,-9.033,8.728
0.165,0.728,0.863,9.521,-8.362,1.831
0.163,0.686,0.882,12.024,-6.042,-4.395
0.176,0.609,0.876,13.733,-3.357,-9.216
0.179,0.536,0.862,13.794,0.122,-11.597

-0.286,-0.880,1.988,-52.979,88.562,64.575
-0.307,-0.922,2.052,-43.579,110.046,87.646
-0.345,-0.901,2.011,-22.156,131.287,110.596
-0.340,-0.893,1.920,-0.183,149.597,130.310
-0.374,-0.899,1.866,14.954,163.086,146.729
-0.440,-0.974,1.844,24.353,173.218,161.377
-0.532,-1.035,1.826,27.649,184.143,178.406
-0.647,-1.084,1.764,28.137,198.547,201.599
-0.750,-1.109,1.652,24.963,214.111,230.835
-0.886,-1.134,1.489,18.250,229.614,264.465
-1.090,-1.005,1.264,3.723,245.239,303.711
-1.261,-0.762,1.004,-13.977,261.108,349.365
-1.464,-0.380,0.716,-30.823,273.071,394.653
-1.644,0.090,0.415,-46.875,276.245,433.044
-1.778,0.517,0.204,-51.270,270.264,459.900
-1.811,0.963,0.110,-41.504,254.089,472.107
-1.824,1.423,0.061,-18.982,231.934,471.313
-1.822,1.916,-0.054,13.428,209.229,460.876
-1.727,2.415,-0.238,48.523,188.049,439.880
-1.588,2.835,-0.348,76.050,165.039,405.518
-1.571,3.076,-0.354,94.421,137.695,357.910
-1.645,3.098,-0.307,108.521,111.694,302.246
-1.669,2.962,-0.266,113.342,94.910,248.413
-1.641,2.676,-0.266,107.483,87.830,202.759
-1.630,2.418,-0.279,92.224,85.266,168.884
-1.649,2.260,-0.354,73.669,82.092,150.452
-1.675,2.213,-0.434,55.725,74.829,142.822
-1.693,2.322,-0.468,38.635,62.195,138.367
-1.699,2.488,-0.451,29.785,45.166,131.409
-1.657,2.684,-0.430,29.724,26.611,118.408
-1.571,2.871,-0.460,33.997,9.827,95.886
-1.495,3.035,-0.526,40.771,-5.920,61.035
-1.452,3.102,-0.603,48.645,-24.292,14.709
-1.468,3.132,-0.679,51.636,-47.913,-40.039
-1.475,3.138,-0.734,50.537,-75.745,-97.778
-1.448,3.143,-0.759,49.622,-107.239,-153.809
-1.529,3.121,-0.739,49.866,-140.869,-209.167
-1.659,3.004,-0.684,52.063,-174.866,-265.625
-1.805,2.786,-0.568,52.612,-206.360,-323.425
-1.969,2.501,-0.438,49.011,-231.384,-379.272
-2.077,2.181,-0.338,44.678,-249.512,-429.810
-2.141,1.897,-0.275,40.344,-263.855,-473.145
-2.199,1.631,-0.208,37.231,-280.396,-508.362
-2.256,1.399,-0.098,33.752,-300.476,-536.865
-2.334,1.129,0.051,28.809,-321.045,-559.021
-2.455,0.900,0.335,14.771,-340.149,-577.393
-2.633,0.638,0.729,-2.258,-354.919,-592.102
-2.793,0.389,1.220,-12.329,-358.826,-600.159
-2.893,0.209,1.773,-13.367,-345.215,-601.257
-2.953,0.090,2.156,-6.653,-311.951,-597.168
-3.082,0.023,2.158,11.658,-262.146,-593.506
-3.129,-0.161,1.797,49.072,-209.839,-596.313
-2.999,-0.609,1.364,87.891,-172.913,-600.891
-2.769,-1.190,1.025,100.708,-156.921,-594.360
-2.432,-1.722,0.843,84.167,-156.555,-561.462
-2.061,-1.986,0.807,42.603,-167.419,-500.610
-1.842,-1.985,0.948,-12.268,-185.364,-421.631
-1.680,-1.872,1.271,-64.392,-202.393,-337.830
-1.620,-1.860,1.651,-102.539,-208.923,-258.911
-1.157,-1.205,2.249,-143.677,-196.533,-191.895
-1.066,-0.969,2.484,-110.535,-166.992,-127.686
-0.932,-0.996,2.323,-23.560,-131.775,-63.782
-0.949,-0.455,2.273,10.254,-96.497,-18.982
-0.899,0.017,2.026,15.137,-58.838,0.061
-0.684,0.288,1.649,26.672,-29.541,3.235
-0.443,0.415,1.345,37.720,-14.038,-3.845
-0.376,0.382,1.152,62.744,-13.855,-11.230
-0.364,0.456,1.179,34.912,-15.259,-24.719
-0.254,0.417,1.183,20.081,-8.362,-37.109
-0.197,0.210,1.073,22.034,5.310,-43.091
-0.105,0.118,0.929,10.254,20.996,-41.199
-0.027,0.084,0.782,-3.906,31.860,-32.227
0.016,0.120,0.678,-12.329,35.278,-20.142
0.029,0.164,0.621,-14.648,31.982,-8.179
0.061,0.239,0.634,-12.268,23.621,1.831
0.061,0.334,0.672,-5.371,13.245,11.719
0.072,0.431,0.701,6.531,3.113,20.813
0.088,0.518,0.730,15.015,-4.333,26.184
0.091,0.589,0.766,15.747,-8.667,28.625
0.081,0.650,0.794,11.902,-10.803,29.846
0.089,0.700,0.829,5.615,-11.108,29.541
0.104,0.753,0.856,2.075,-11.292,27.222
0.109,0.750,0.895,3.479,-11.597,21.973
0.102,0.730,0.940,6.653,-10.010,14.648
0.090,0.669,0.952,9.949,-5.981,6.897
0.129,0.588,0.919,11.230,0.305,1.099
0.158,0.508,0.848,10.742,7.324,-0.061
0.166,0.486,0.775,5.493,12.451,3.845
0.175,0.506,0.715,-0.916,14.954,10.559
0.155,0.571,0.686,-6.470,14.587,16.174
0.150,0.635,0.685,-8.606,12.878,18.066
0.130,0.665,0.697,-5.066,10.071,15.808
0.125,0.650,0.718,2.136,6.531,10.986
0.139,0.610,0.739,11.475,3.540,6.165
0.141,0.564,0.749,19.653,1.648,3.296
0.141,0.519,0.769,23.437,0.549,2.441
0.156,0.486,0.789,22.034,0.732,3.418
0.177,0.490,0.786,19.958,2.563,7.019
0.195,0.515,0.755,18.616,5.554,12.756
0.206,0.577,0.713,14.709,8.057,19.165
0.213,0.672,0.678,7.996,8.850,23.743
0.207,0.752,0.655,4.578,7.812,24.719
0.199,0.799,0.649,4.272,5.310,20.996
0.194,0.810,0.670,6.348,1.892,13.794
0.174,0.774,0.709,9.827,-1.526,4.883
0.145,0.709,0.746,12.939,-3.357,-3.601
0.143,0.620,0.769,15.320,-3.235,-10.193
0.153,0.527,0.782,16.052,-1.953,-13.733
0.151,0.464,0.791,14.404,-0.671,-13.245
0.139,0.432,0.803,12.634,0.549,-9.399
0.125,0.426,0.808,10.498,1.160,-4.272
0.123,0.446,0.806,6.592,2.014,0.488
0.144,0.498,0.789,2.686,2.747,5.371
0.170,0.554,0.777,0.366,2.563,9.094
0.164,0.598,0.778,-0.427,1.465,9.949
0.162,0.617,0.791,-0.061,0.488,8.484
0.162,0.610,0.811,0.122,0.732,6.165
0.152,0.605,0.817,1.465,2.197,3.906
0.144,0.583,0.801,7.019,3.723,2.136

-0.357,-0.830,1.727,-23.071,94.238,68.115
-0.393,-0.906,1.781,-38.513,118.286,98.816
-0.396,-0.853,1.729,-42.297,143.250,136.108
-0.423,-0.740,1.596,-36.926,164.307,172.607
-0.467,-0.634,1.528,-32.043,178.223,200.745
-0.513,-0.672,1.552,-27.039,186.218,220.276
-0.570,-0.732,1.611,-23.437,193.848,236.328
-0.695,-0.766,1.651,-20.081,207.275,254.944
-0.830,-0.781,1.592,-12.146,226.074,280.640
-0.952,-0.796,1.414,-2.502,245.667,309.814
-1.169,-0.754,1.168,-0.244,263.672,340.820
-1.386,-0.598,0.859,-6.042,277.771,375.122
-1.589,-0.321,0.521,-13.367,285.767,413.757
-1.766,0.141,0.155,-16.907,284.424,451.721
-1.859,0.722,-0.202,-8.728,273.560,481.140
-1.863,1.206,-0.405,20.325,249.573,494.568
-1.865,1.704,-0.454,46.448,211.487,489.441
-1.835,2.117,-0.390,66.711,168.762,472.656
-1.874,2.357,-0.277,86.426,132.324,449.890
-1.980,2.582,-0.145,88.074,107.910,421.570
-2.049,2.833,-0.081,83.374,94.971,389.709
-2.058,3.044,-0.073,87.036,90.088,353.577
-2.088,3.270,-0.137,95.642,87.952,309.204
-2.073,3.527,-0.285,107.788,85.693,258.423
-1.981,3.794,-0.542,119.629,80.444,203.918
-1.793,4.000,-0.983,114.380,65.735,134.949
-1.729,4.000,-0.929,110.291,36.377,45.410
-1.726,3.943,-1.026,95.459,6.226,-25.452
-1.801,3.679,-0.979,55.542,-32.959,-97.046
-1.816,3.394,-0.770,10.803,-79.041,-168.640
-1.932,3.016,-0.540,-13.550,-121.399,-231.567
-2.089,2.635,-0.323,-21.240,-155.518,-282.837
-2.150,2.366,-0.137,-27.466,-177.307,-322.876
-2.171,2.156,-0.036,-23.621,-188.049,-354.919
-2.207,2.012,-0.051,-8.911,-192.444,-382.019
-2.215,1.894,-0.169,17.761,-196.289,-408.386
-2.193,1.758,-0.352,53.650,-205.505,-435.913
-2.189,1.595,-0.521,82.520,-222.107,-464.783
-2.173,1.472,-0.648,91.614,-245.728,-491.455
-2.128,1.400,-0.677,76.904,-273.987,-514.038
-2.213,1.365,-0.580,47.913,-307.312,-534.607
-2.378,1.241,-0.279,9.155,-342.773,-554.016
-2.568,1.192,0.196,-43.274,-374.451,-570.801
-2.771,1.228,0.757,-82.092,-393.311,-583.496
-3.126,1.324,1.210,-85.327,-394.409,-598.022
-3.461,1.249,1.483,-35.522,-377.808,-620.911
-3.691,0.933,1.541,47.546,-346.497,-655.884
-3.882,0.320,1.522,124.329,-308.960,-697.083
-3.890,-0.539,1.476,170.471,-266.541,-724.365
-3.670,-1.520,1.381,182.678,-219.238,-718.994
-3.184,-2.535,1.247,151.550,-175.659,-670.166
-2.523,-3.354,1.205,79.163,-146.790,-578.613
-1.954,-3.724,1.413,-20.752,-136.353,-451.660
-1.602,-3.508,1.801,-112.549,-136.658,-303.162
-1.389,-2.725,2.061,-163.574,-130.798,-155.640
-1.311,-1.551,2.344,-183.289,-111.511,-36.133
-1.100,-0.409,2.164,-188.843,-82.703,39.612
-0.971,0.007,1.670,-109.436,-62.561,84.229
-0.904,0.484,1.479,-31.921,-63.660,93.811
-0.801,0.973,1.486,-19.043,-69.153,69.458
-0.637,1.046,1.524,9.888,-72.266,28.320
-0.519,0.804,1.591,44.006,-70.007,-16.113
-0.310,0.622,1.637,68.298,-57.495,-51.331
-0.257,0.131,1.501,95.337,-37.476,-67.627
-0.235,-0.077,1.390,81.116,-13.977,-68.298
-0.165,-0.115,1.225,43.274,10.986,-58.289
-0.056,-0.105,1.002,16.357,32.349,-40.466
-0.027,-0.071,0.774,-3.418,44.434,-19.165
0.038,0.096,0.651,-24.841,45.898,0.061
0.036,0.285,0.611,-34.119,40.771,15.259
0.025,0.415,0.574,-25.757,31.494,26.245
0.031,0.566,0.556,-13.855,20.264,32.227
0.069,0.649,0.569,-1.221,7.019,32.776
0.101,0.686,0.646,11.902,-6.287,28.259
0.128,0.717,0.778,18.860,-16.602,21.667
0.133,0.678,0.876,28.442,-21.484,16.052
0.168,0.670,0.928,34.058,-20.508,13.489
0.196,0.677,0.936,33.752,-16.052,13.489
0.176,0.699,0.939,28.381,-10.620,14.221
0.151,0.741,0.975,16.602,-5.432,13.184
0.129,0.735,1.005,7.568,0.488,9.399
0.108,0.699,1.014,7.629,7.202,4.395
0.085,0.637,0.984,7.019,14.709,-1.160
0.067,0.560,0.904,6.714,22.095,-4.517
0.079,0.495,0.806,6.958,27.100,-5.432
0.102,0.463,0.713,5.554,28.137,-3.845
0.125,0.443,0.654,7.507,25.146,-1.099
0.142,0.451,0.622,9.399,19.775,2.747
0.145,0.465,0.626,11.353,13.367,6.958
0.149,0.486,0.640,12.390,7.629,10.681
0.161,0.498,0.662,12.573,2.930,13.916
0.177,0.522,0.691,10.620,0.549,16.907
0.192,0.554,0.719,7.996,-1.038,19.836
0.184,0.608,0.753,6.104,-1.770,21.973
0.181,0.663,0.787,5.798,-1.831,21.667
0.183,0.685,0.812,7.507,-1.404,19.226
0.178,0.701,0.832,8.606,-0.427,15.808
0.168,0.701,0.834,10.010,1.587,12.573
0.156,0.683,0.823,10.437,4.150,9.033
0.149,0.660,0.793,9.460,6.470,5.737
0.155,0.620,0.759,8.972,8.301,2.991
0.151,0.576,0.733,7.812,9.155,1.282
0.148,0.544,0.717,6.470,8.240,0.977
0.132,0.522,0.702,6.653,7.080,1.709
0.115,0.498,0.689,6.042,5.737,2.808
0.123,0.477,0.697,1.343,3.784,4.456
0.127,0.467,0.731,-2.197,1.526,6.775
0.116,0.487,0.773,-2.014,-1.038,9.583
0.121,0.493,0.806,2.014,-2.747,11.902
0.121,0.499,0.825,7.507,-3.174,14.038
0.131,0.510,0.823,10.071,-2.747,16.357
0.155,0.557,0.807,9.094,-1.038,19.531
0.164,0.621,0.790,7.935,0.916,22.278
0.159,0.681,0.778,6.653,2.319,21.729
0.158,0.709,0.777,6.226,2.502,18.494
0.155,0.713,0.765,8.301,3.174,13.977
0.155,0.699,0.755,11.047,3.113,9.644
0.144,0.686,0.753,12.146,2.380,5.493
0.127,0.672,0.760,12.024,1.465,1.526

-0.292,-0.717,1.785,-26.062,72.266,47.729
-0.262,-0.724,1.659,-28.076,98.755,73.792
-0.258,-0.645,1.482,-28.442,119.019,99.670
-0.281,-0.534,1.350,-28.442,129.028,120.728
-0.295,-0.487,1.348,-27.832,129.822,135.010
-0.338,-0.478,1.477,-27.893,127.502,144.836
-0.429,-0.541,1.638,-24.475,130.127,153.748
-0.543,-0.725,1.771,-16.602,140.259,164.795
-0.640,-0.914,1.841,-14.526,158.264,181.335
-0.753,-1.013,1.794,-12.573,182.983,207.397
-0.903,-1.024,1.615,-4.517,211.060,243.835
-1.068,-0.901,1.320,5.859,236.633,288.513
-1.287,-0.605,0.937,8.789,255.615,337.585
-1.475,-0.240,0.517,4.333,265.930,383.301
-1.580,0.166,0.239,-12.634,264.282,419.434
-1.676,0.508,0.144,-34.790,252.808,444.824
-1.815,0.805,0.158,-49.561,238.708,460.815
-1.975,1.216,0.066,-47.363,227.844,471.008
-2.012,1.756,-0.236,-21.667,222.717,476.807
-1.877,2.256,-0.540,19.958,212.952,470.215
-1.759,2.682,-0.689,47.668,187.256,442.200
-1.695,2.920,-0.696,66.467,148.499,396.423
-1.644,2.901,-0.550,81.726,109.619,343.567
-1.656,2.843,-0.381,92.651,80.627,291.443
-1.673,2.693,-0.270,100.525,64.941,246.643
-1.647,2.518,-0.234,96.985,59.509,212.158
-1.619,2.409,-0.231,79.285,58.472,185.242
-1.601,2.354,-0.269,58.472,57.251,164.001
-1.561,2.341,-0.305,38.452,53.101,144.592
-1.486,2.289,-0.274,20.020,44.983,122.681
-1.439,2.195,-0.171,6.409,33.081,96.436
-1.383,2.014,-0.039,2.502,18.921,67.871
-1.349,1.755,0.081,8.423,4.761,38.940
-1.320,1.449,0.158,19.592,-7.202,12.390
-1.276,1.197,0.175,32.532,-16.968,-7.507
-1.272,1.094,0.106,46.326,-24.658,-19.958
-1.277,1.169,0.011,62.927,-32.104,-26.184
-1.258,1.399,-0.105,76.294,-44.250,-30.212
-1.248,1.792,-0.236,84.290,-64.392,-37.537
-1.248,2.306,-0.336,90.759,-89.417,-53.711
-1.273,2.693,-0.400,102.905,-114.014,-83.923
-1.315,2.922,-0.431,109.619,-136.414,-133.606
-1.373,2.924,-0.435,104.126,-159.180,-200.684
-1.531,2.818,-0.403,89.050,-184.937,-275.146
-1.657,2.639,-0.337,77.515,-211.853,-344.788
-1.842,2.443,-0.298,74.585,-237.915,-404.480
-2.060,2.207,-0.279,76.050,-262.207,-458.130
-2.289,2.030,-0.236,75.745,-285.400,-508.789
-2.513,1.855,-0.187,80.505,-306.641,-555.786
-2.792,1.671,-0.123,92.590,-325.439,-601.990
-3.082,1.358,0.042,103.699,-342.224,-650.269
-3.396,0.925,0.359,100.037,-354.736,-698.853
-3.691,0.384,0.909,79.102,-354.675,-738.159
-3.889,-0.146,1.518,45.410,-335.327,-759.888
-4.000,-0.409,1.864,6.531,-295.898,-757.385
-4.000,-0.475,1.878,-10.193,-248.535,-739.624
-4.000,-0.715,1.660,10.132,-213.379,-724.487
-3.799,-1.382,1.437,53.589,-195.862,-712.402
-3.250,-2.079,1.427,67.139,-189.819,-687.439
-2.564,-2.619,1.621,51.697,-184.998,-630.737
-1.947,-3.153,1.658,33.752,-177.551,-535.278
-1.644,-3.168,1.745,18.860,-165.894,-405.396
-1.421,-2.790,1.924,3.601,-152.039,-267.029
-1.219,-2.132,2.044,-11.902,-131.470,-143.982
-1.075,-1.515,2.053,-8.728,-104.919,-50.110
-0.881,-0.837,1.974,-2.502,-75.378,12.573
-0.787,-0.298,1.718,18.188,-48.035,53.223
-0.640,0.283,1.496,20.264,-25.696,69.946
-0.518,0.666,1.244,33.020,-10.864,64.331
-0.400,0.841,1.000,53.345,-4.639,41.870
-0.333,0.839,0.810,65.247,-4.639,10.071
-0.227,0.737,0.715,58.289,-9.094,-22.888
-0.121,0.523,0.725,46.753,-15.442,-47.058
-0.087,0.312,0.776,33.264,-19.287,-57.495
-0.063,0.135,0.835,19.470,-18.799,-54.871
-0.019,0.029,0.868,8.301,-14.404,-42.236
0.038,0.010,0.862,1.892,-8.362,-22.339
0.073,0.104,0.855,0.122,-4.395,-0.427
0.068,0.262,0.868,2.075,-3.540,18.921
0.047,0.437,0.880,7.874,-4.028,32.593
0.047,0.594,0.852,15.686,-4.089,41.260
0.049,0.748,0.797,18.127,-4.089,44.922
0.046,0.853,0.743,14.648,-5.127,43.518
0.079,0.943,0.745,5.066,-7.507,36.865
0.090,0.947,0.802,-1.709,-10.620,25.574
0.102,0.907,0.885,-6.409,-12.268,11.414
0.130,0.818,0.947,-3.784,-10.193,-0.610
0.156,0.730,0.951,2.197,-4.822,-6.653
0.161,0.678,0.924,6.042,2.075,-7.874
0.147,0.684,0.891,5.127,7.812,-6.531
0.140,0.723,0.856,3.418,11.902,-5.920
0.124,0.735,0.846,4.578,13.977,-8.118
0.097,0.705,0.836,7.629,14.099,-13.672
0.090,0.634,0.801,15.076,13.611,-18.921
0.079,0.545,0.745,23.865,11.963,-21.790
0.086,0.465,0.705,27.344,8.362,-22.034
0.106,0.410,0.710,23.804,3.784,-19.226
0.099,0.384,0.748,17.212,-0.122,-14.160
0.089,0.391,0.783,10.803,-2.319,-8.240
0.101,0.420,0.803,6.226,-2.014,-2.869
0.107,0.450,0.824,3.540,-0.793,1.038
0.101,0.463,0.853,2.380,-0.122,2.686
0.109,0.468,0.890,2.625,0.244,2.380
0.111,0.445,0.906,6.348,1.892,1.892
0.123,0.425,0.882,11.658,4.517,2.930
0.134,0.423,0.826,15.747,7.080,6.653
0.156,0.456,0.764,14.832,8.606,11.475
0.168,0.511,0.718,10.559,8.606,15.930
0.175,0.583,0.685,5.615,7.080,18.188
0.165,0.639,0.674,2.625,4.395,18.005
0.150,0.666,0.679,0.366,1.099,14.465
0.146,0.642,0.716,-0.977,-2.258,8.972
0.129,0.584,0.785,-3.296,-5.127,3.113
0.116,0.521,0.874,-6.165,-6.409,-1.343
0.120,0.465,0.949,-5.371,-5.371,-2.930
0.113,0.421,0.984,0.183,-1.709,-2.136
0.122,0.406,0.964,7.019,3.784,1.038
0.129,0.402,0.891,13.855,9.033,6.653
0.137,0.472,0.815,13.733,12.207,12.573

-0.375,-1.014,2.214,-74.219,68.481,49.438
-0.396,-1.188,2.363,-90.332,99.609,77.209
-0.401,-1.237,2.304,-82.336,133.606,111.572
-0.391,-1.160,2.090,-57.678,162.720,147.034
-0.427,-1.052,1.882,-28.870,181.702,180.054
-0.518,-0.916,1.764,-11.292,190.918,207.703
-0.611,-0.779,1.673,-1.160,195.984,231.567
-0.696,-0.715,1.600,9.827,203.003,253.357
-0.807,-0.678,1.519,13.123,211.365,272.522
-0.955,-0.737,1.466,3.357,220.215,290.283
-1.130,-0.788,1.402,-11.536,232.849,310.547
-1.321,-0.728,1.246,-25.269,251.587,339.478
-1.557,-0.571,1.011,-33.997,273.376,376.160
-1.901,-0.297,0.716,-38.757,291.870,413.452
-2.162,0.226,0.257,-38.147,304.260,448.792
-2.153,0.855,-0.299,-19.531,304.443,478.516
-2.058,1.513,-0.649,10.559,280.151,490.906
-2.042,2.067,-0.745,36.194,233.765,479.736
-2.064,2.372,-0.611,59.937,180.725,447.876
-2.089,2.472,-0.326,74.829,138.000,404.053
-2.161,2.459,-0.050,86.548,115.417,359.863
-2.161,2.386,0.075,99.915,111.389,324.707
-2.216,2.378,0.030,107.971,119.690,299.744
-2.263,2.452,-0.128,105.713,130.188,281.189
-2.223,2.569,-0.332,94.604,135.559,263.306
-2.124,2.805,-0.577,76.050,133.057,242.249
-1.942,2.990,-0.819,61.157,121.155,213.867
-1.776,3.119,-0.994,40.710,99.487,175.964
-1.732,3.222,-0.985,12.085,66.528,127.136
-1.714,2.853,-0.830,-3.906,24.231,68.909
-1.706,2.550,-0.648,-7.507,-17.151,15.137
-1.677,2.272,-0.424,-8.179,-52.124,-31.860
-1.709,2.063,-0.267,0.427,-78.979,-71.716
-1.758,1.979,-0.158,13.123,-98.938,-104.370
-1.788,1.968,-0.067,30.823,-112.976,-131.409
-1.842,2.039,-0.036,54.321,-121.643,-157.288
-1.891,2.118,-0.129,80.994,-124.207,-185.059
-1.865,2.170,-0.319,101.868,-123.779,-217.285
-1.819,2.247,-0.567,108.948,-127.075,-252.136
-1.784,2.351,-0.782,103.577,-139.771,-289.246
-1.791,2.407,-0.921,91.858,-165.833,-331.055
-1.852,2.399,-0.978,81.787,-204.102,-379.517
-1.992,2.351,-0.999,79.041,-249.634,-433.655
-2.243,2.171,-0.972,88.867,-298.218,-492.126
-2.572,1.933,-0.819,101.135,-345.825,-552.917
-2.933,1.625,-0.498,107.117,-388.367,-611.084
-3.346,1.202,0.061,100.647,-421.997,-665.100
-3.814,0.660,0.929,58.960,-442.017,-717.285
-4.000,0.115,1.971,-19.714,-435.669,-759.094
-4.000,-0.491,2.741,-79.956,-390.869,-779.785
-4.000,-0.906,3.029,-96.375,-318.054,-772.949
-4.000,-1.177,2.810,-60.791,-253.662,-737.976
-3.644,-1.506,2.480,13.245,-216.187,-691.040
-3.252,-1.943,2.224,73.364,-196.350,-644.287
-2.784,-2.390,1.983,104.736,-178.894,-589.111
-2.233,-2.729,1.724,108.826,-162.170,-512.512
-1.782,-2.705,1.713,61.707,-151.672,-417.847
-1.174,-2.287,1.772,-8.362,-143.555,-318.604
-1.166,-2.225,1.671,-3.967,-135.742,-211.609
-1.034,-1.622,1.760,-27.832,-122.253,-118.958
-0.896,-1.028,1.737,-40.466,-100.403,-52.307
-0.676,-0.409,1.659,-25.391,-78.735,-13.245
-0.547,-0.078,1.409,11.841,-63.721,7.568
-0.490,0.311,1.235,42.419,-55.969,14.038
-0.399,0.573,1.137,52.673,-53.284,3.296
-0.282,0.638,1.129,61.340,-53.345,-17.212
-0.210,0.536,1.162,68.604,-51.453,-38.635
-0.154,0.382,1.177,66.772,-42.847,-52.124
-0.088,0.219,1.148,53.101,-27.771,-54.871
-0.037,0.143,1.089,28.503,-10.864,-48.340
0.001,0.170,1.004,3.052,2.747,-35.583
0.046,0.229,0.933,-11.963,12.024,-22.644
0.079,0.290,0.908,-15.930,14.893,-11.963
0.082,0.384,0.930,-10.498,13.123,-3.235
0.046,0.475,0.935,3.113,9.827,3.601
0.010,0.550,0.848,20.935,8.057,8.057
0.060,0.594,0.725,31.555,6.470,10.620
0.113,0.624,0.662,28.870,1.526,12.024
0.134,0.681,0.690,19.043,-4.883,12.085
0.137,0.723,0.746,10.010,-8.850,10.803
0.142,0.745,0.793,5.554,-9.705,8.179
0.145,0.757,0.843,0.488,-8.423,3.784
0.129,0.736,0.899,-0.793,-6.775,-1.892
0.125,0.666,0.957,0.610,-4.456,-8.118
0.149,0.564,0.993,4.822,-0.671,-13.184
0.159,0.470,0.987,12.756,4.578,-13.733
0.165,0.412,0.933,19.531,10.315,-9.460
0.177,0.418,0.837,22.339,15.320,-1.648
0.175,0.478,0.737,17.700,18.555,7.385
0.167,0.554,0.672,9.094,18.982,14.648
0.178,0.641,0.650,-0.671,16.785,18.555
0.172,0.695,0.661,-6.226,13.000,18.860
0.140,0.789,0.666,-7.507,9.338,16.052
0.158,0.826,0.673,-2.319,5.371,9.766
0.161,0.791,0.721,5.127,-0.366,0.000
0.151,0.707,0.814,10.498,-4.883,-10.010
0.152,0.602,0.885,15.991,-5.737,-17.273
0.168,0.496,0.908,19.958,-2.747,-19.714
0.187,0.432,0.883,20.081,3.357,-17.944
0.190,0.410,0.823,17.578,10.315,-12.817
0.196,0.409,0.747,13.550,16.052,-6.714
0.194,0.426,0.666,9.583,18.494,-1.160
0.188,0.474,0.604,3.479,17.944,4.944
0.181,0.542,0.566,-2.930,14.404,10.071
0.163,0.606,0.561,-6.226,8.545,12.085
0.166,0.646,0.603,-6.653,1.099,11.047
0.162,0.657,0.674,-2.319,-5.615,7.874
0.145,0.653,0.753,6.897,-10.620,3.662
0.133,0.607,0.827,15.259,-13.123,-0.549
0.131,0.531,0.880,19.226,-11.963,-3.540
0.136,0.469,0.903,17.822,-7.690,-4.028
0.140,0.445,0.890,13.977,-2.625,-1.953
0.144,0.446,0.861,10.132,2.380,2.197
0.143,0.463,0.830,6.470,6.165,6.531
0.152,0.490,0.802,3.784,8.606,10.376
0.152,0.539,0.764,3.296,9.949,13.062
0.158,0.584,0.711,4.700,10.742,14.587
0.172,0.618,0.665,5.127,10.071,14.526
0.179,0.640,0.653,4.761,7.568,12.939

-0.227,-0.886,1.959,-54.688,71.655,47.974
-0.280,-1.025,2.001,-61.340,97.717,75.806
-0.323,-1.051,1.895,-57.922,126.404,110.107
-0.353,-0.974,1.707,-48.096,150.208,146.118
-0.403,-0.815,1.560,-39.490,163.879,178.467
-0.469,-0.640,1.501,-30.701,169.800,204.163
-0.491,-0.486,1.491,-20.386,173.157,222.961
-0.526,-0.378,1.432,-5.859,178.528,237.366
-0.621,-0.341,1.312,8.850,186.035,247.742
-0.724,-0.363,1.182,15.869,192.871,257.202
-0.852,-0.404,1.061,16.541,199.097,270.691
-0.996,-0.411,0.926,13.428,204.895,291.382
-1.188,-0.319,0.741,7.507,211.365,319.946
-1.419,-0.168,0.556,-0.366,217.651,352.783
-1.612,0.033,0.396,-14.893,221.008,384.644
-1.768,0.355,0.268,-29.846,220.703,413.391
-1.891,0.851,0.072,-29.358,217.651,436.340
-1.892,1.409,-0.204,-2.075,209.534,447.876
-1.812,1.856,-0.389,36.804,188.171,440.613
-1.759,2.110,-0.365,65.308,153.687,413.940
-1.769,2.178,-0.138,81.421,118.835,377.197
-1.726,2.079,0.181,87.646,95.032,341.309
-1.777,1.968,0.427,84.045,90.393,312.744
-1.792,1.866,0.459,80.933,102.661,293.823
-1.733,1.856,0.302,71.411,119.568,279.602
-1.690,1.910,0.099,58.655,130.371,264.832
-1.693,2.013,-0.045,50.110,129.272,248.169
-1.443,3.180,-0.776,48.706,118.408,227.844
-1.609,4.000,-0.913,49.133,76.721,145.935
-1.457,2.989,-0.300,133.911,17.700,26.184
-1.588,2.476,-0.204,159.119,2.625,-7.202
-1.794,2.458,-0.231,110.718,2.808,-10.803
-1.645,2.884,-0.536,54.077,2.625,-19.531
-1.567,3.308,-0.791,12.878,-13.733,-55.847
-1.617,3.547,-0.857,1.282,-50.293,-119.385
-1.747,3.513,-0.755,15.625,-97.046,-194.702
-1.991,3.245,-0.544,40.894,-140.076,-268.738
-2.257,2.946,-0.292,55.725,-170.288,-334.900
-2.425,2.683,-0.126,63.782,-182.129,-388.184
-2.496,2.477,-0.142,73.181,-178.772,-429.138
-2.539,2.328,-0.343,84.045,-171.997,-462.952
-2.536,2.214,-0.608,89.417,-173.340,-492.981
-2.598,2.066,-0.802,88.928,-189.392,-523.315
-2.643,1.898,-0.843,71.472,-218.567,-554.321
-2.693,1.728,-0.740,38.513,-255.737,-581.421
-2.828,1.571,-0.540,6.226,-292.114,-602.051
-2.989,1.468,-0.275,-23.804,-324.463,-617.493
-3.247,1.456,0.064,-55.847,-352.356,-632.324
-3.700,1.428,0.506,-78.003,-373.596,-653.625
-4.000,1.266,0.920,-63.782,-384.460,-683.777
-4.000,0.849,1.265,-5.432,-379.211,-719.666
-4.000,-0.072,1.709,69.824,-361.145,-756.042
-4.000,-1.563,2.252,115.723,-326.904,-777.039
-4.000,-3.331,2.734,104.431,-268.555,-755.188
-3.451,-4.000,2.968,51.208,-196.594,-663.940
-2.459,-4.000,2.909,-2.319,-132.996,-499.390
-1.810,-4.000,2.651,-42.847,-88.501,-296.936
-1.609,-3.097,2.322,-75.500,-58.777,-120.728
-1.502,-1.543,2.164,-111.816,-34.668,-9.521
-0.991,0.046,1.698,-127.991,-15.015,44.312
-0.970,0.153,0.962,-35.278,-22.766,68.115
-0.902,0.859,1.046,-5.554,-55.176,52.063
-0.880,1.038,1.338,16.113,-82.153,3.784
-0.766,0.737,1.663,54.565,-90.210,-57.983
-0.541,0.327,1.838,81.848,-73.547,-108.582
-0.310,-0.236,1.639,113.770,-40.222,-127.686
-0.238,-0.617,1.302,130.798,-8.728,-115.234
-0.144,-0.640,1.049,86.792,14.771,-85.876
-0.089,-0.552,0.843,35.095,30.579,-48.096
-0.063,-0.308,0.714,-10.010,38.025,-11.719
-0.040,0.037,0.629,-42.664,37.048,17.090
-0.008,0.377,0.577,-57.251,31.006,34.851
0.016,0.653,0.538,-48.096,21.179,40.710
0.073,0.832,0.523,-23.682,6.897,37.659
0.114,0.925,0.553,6.470,-9.155,29.175
0.105,0.946,0.664,28.687,-23.804,17.212
0.093,0.886,0.814,37.720,-33.508,4.150
0.113,0.797,0.958,39.551,-35.645,-5.798
0.120,0.705,1.067,37.781,-31.494,-12.451
0.107,0.612,1.131,33.020,-22.400,-15.625
0.105,0.524,1.129,24.353,-9.827,-15.259
0.115,0.501,1.070,12.451,3.479,-11.047
0.115,0.543,0.957,1.831,14.709,-4.944
0.129,0.620,0.865,-8.057,21.240,0.305
0.127,0.624,0.789,-14.587,23.193,2.869
0.127,0.664,0.763,-15.076,21.484,3.296
0.129,0.674,0.726,-7.996,18.372,2.258
0.123,0.647,0.670,5.005,13.672,1.465
0.145,0.667,0.652,10.620,8.057,0.061
0.146,0.646,0.681,13.794,1.709,-1.953
0.134,0.646,0.755,11.414,-3.296,-3.601
0.120,0.645,0.797,11.108,-4.639,-4.639
0.140,0.634,0.823,12.817,-4.028,-5.066
0.124,0.599,0.861,13.855,-3.174,-6.592
0.135,0.551,0.900,13.550,-1.648,-7.996
0.150,0.488,0.906,14.160,1.526,-7.202
0.168,0.478,0.862,12.634,6.104,-3.601
0.187,0.531,0.793,9.888,9.460,2.197
0.193,0.613,0.763,8.667,10.132,6.470
0.169,0.645,0.768,10.498,8.728,6.165
0.148,0.646,0.764,13.123,7.996,3.418
0.131,0.641,0.716,13.855,8.484,1.282
0.161,0.626,0.673,9.277,8.057,-0.244
0.171,0.619,0.700,1.465,4.883,-2.991
0.151,0.598,0.763,-1.831,1.587,-6.409
0.140,0.547,0.808,2.258,0.366,-10.071
0.132,0.456,0.822,8.667,1.648,-12.268
0.132,0.384,0.821,11.292,3.235,-11.230
0.148,0.338,0.816,8.850,4.578,-7.141
0.155,0.332,0.815,5.432,5.676,-1.526
0.172,0.369,0.800,3.113,6.958,6.042
0.189,0.437,0.760,3.540,8.118,14.038
0.206,0.525,0.718,4.395,8.301,20.691
0.199,0.619,0.702,4.089,6.592,23.926
0.208,0.681,0.698,3.357,3.662,22.949
0.209,0.725,0.703,4.883,1.038,19.592
0.208,0.760,0.714,8.118,-1.526,15.198
0.200,0.777,0.750,10.925,-3.784,8.728
0.168,0.744,0.816,12.329,-5.127,0.793

-0.260,-0.753,1.692,-52.612,103.088,117.676
-0.308,-0.648,1.685,-46.387,118.713,145.508
-0.360,-0.486,1.675,-33.020,131.531,168.579
-0.409,-0.372,1.678,-14.282,143.066,184.814
-0.442,-0.328,1.711,1.770,153.992,194.885
-0.481,-0.347,1.711,13.977,166.138,201.843
-0.576,-0.460,1.626,23.804,181.885,210.510
-0.684,-0.557,1.465,26.184,200.500,224.976
-0.805,-0.622,1.277,20.996,217.041,247.681
-0.967,-0.669,1.123,9.399,230.530,277.344
-1.152,-0.593,0.901,-6.592,243.591,313.477
-1.289,-0.342,0.592,-21.362,254.517,355.103
-1.412,0.031,0.326,-31.860,256.042,393.860
-1.552,0.539,0.160,-39.978,246.216,420.959
-1.549,1.099,0.003,-37.292,230.225,434.265
-1.526,1.633,-0.139,-11.780,208.435,429.810
-1.516,2.067,-0.237,25.024,180.969,406.982
-1.436,2.361,-0.281,58.655,151.855,372.925
-1.390,2.529,-0.244,74.890,124.817,333.130
-1.419,2.615,-0.181,74.524,104.492,292.053
-1.427,2.608,-0.134,67.688,93.628,254.761
-1.468,2.511,-0.067,59.753,89.111,220.947
-1.516,2.397,0.010,55.176,87.341,190.186
-1.573,2.236,0.053,61.462,86.365,164.551
-1.571,2.066,0.050,72.144,86.487,145.264
-1.548,1.931,0.015,76.965,87.036,131.775
-1.536,1.874,-0.040,72.998,85.388,123.352
-1.533,1.900,-0.107,63.354,80.078,117.493
-1.535,1.996,-0.179,52.917,70.923,110.474
-1.525,2.160,-0.239,41.748,58.716,99.060
-1.519,2.412,-0.339,34.973,43.823,80.627
-1.493,2.765,-0.547,39.185,25.879,54.626
-1.459,3.177,-0.823,51.392,2.869,19.653
-1.455,3.478,-1.030,66.833,-28.564,-27.954
-1.538,3.583,-1.006,68.604,-70.801,-91.125
-1.683,3.501,-0.802,55.054,-114.746,-161.865
-1.852,3.311,-0.559,41.321,-148.499,-230.042
-2.021,3.024,-0.333,34.363,-171.265,-291.687
-2.219,2.698,-0.128,28.259,-188.171,-348.511
-2.356,2.315,0.044,25.085,-200.928,-398.804
-2.393,1.953,0.142,26.184,-208.008,-440.063
-2.351,1.679,0.121,27.405,-211.792,-470.032
-2.333,1.500,0.021,28.809,-217.773,-492.737
-2.343,1.404,-0.108,31.921,-232.483,-513.733
-2.389,1.297,-0.197,38.208,-257.019,-537.903
-2.533,1.181,-0.136,40.466,-290.283,-567.627
-2.810,0.978,0.182,34.485,-328.369,-601.318
-3.096,0.622,0.915,9.705,-361.816,-635.254
-3.398,0.208,1.793,-39.917,-371.887,-659.546
-3.714,-0.078,2.443,-96.497,-343.567,-667.847
-3.929,-0.308,2.624,-130.493,-288.269,-661.987
-3.820,-0.743,2.408,-126.770,-235.779,-649.292
-3.454,-1.313,2.113,-100.464,-204.102,-632.996
-2.910,-1.884,1.840,-60.730,-195.068,-599.365
-2.826,-2.591,1.542,-34.912,-202.026,-540.222
-1.655,-2.163,1.774,-61.951,-212.646,-469.543
-1.625,-2.654,1.580,16.113,-221.130,-373.840
-1.523,-2.143,1.842,35.278,-221.558,-273.926
-1.358,-1.630,2.033,4.028,-203.674,-193.420
-1.232,-1.228,2.119,-6.592,-168.457,-132.935
-0.865,-0.905,2.164,-14.038,-128.662,-91.248
-0.852,-0.662,2.066,0.977,-93.445,-57.129
-0.765,-0.337,1.958,-15.808,-61.462,-39.063
-0.553,-0.105,1.779,-23.804,-34.851,-34.790
-0.393,-0.034,1.574,-11.841,-15.747,-36.133
-0.250,0.030,1.377,2.686,-4.211,-36.316
-0.161,0.089,1.165,16.663,3.906,-30.884
-0.122,0.156,0.956,25.146,10.376,-23.193
-0.071,0.236,0.771,26.001,14.038,-17.029
-0.006,0.278,0.608,24.353,14.221,-12.878
0.040,0.298,0.520,24.109,8.728,-8.667
0.080,0.309,0.544,21.362,-1.221,-4.883
0.078,0.338,0.665,17.883,-10.742,-1.343
0.089,0.380,0.792,15.015,-16.357,3.479
0.096,0.429,0.882,15.869,-17.273,9.827
0.107,0.467,0.940,16.541,-15.198,16.479
0.136,0.516,0.971,14.648,-11.353,22.339
0.172,0.594,0.973,12.695,-5.920,26.733
0.187,0.662,0.938,14.832,0.305,29.236
0.182,0.765,0.850,17.639,7.202,30.823
0.203,0.879,0.714,17.395,12.390,30.823
0.205,0.966,0.618,11.292,12.024,26.978
0.188,1.000,0.597,2.014,6.836,18.005
0.194,0.967,0.651,-3.540,-0.366,5.798
0.173,0.859,0.732,0.610,-6.470,-6.287
0.162,0.726,0.815,7.690,-10.071,-16.846
0.149,0.558,0.870,15.442,-9.705,-23.804
0.152,0.420,0.885,20.386,-6.042,-25.269
0.163,0.330,0.872,21.729,-1.099,-21.118
0.161,0.297,0.849,18.921,4.150,-13.184
0.159,0.333,0.827,14.954,8.911,-4.028
0.160,0.402,0.797,12.817,12.512,4.089
0.139,0.466,0.738,14.038,14.893,11.047
0.146,0.542,0.647,13.367,15.625,15.747
0.175,0.613,0.587,7.385,12.634,18.005
0.179,0.662,0.604,-1.404,6.958,16.968
0.180,0.686,0.658,-6.165,0.916,13.733
0.185,0.677,0.704,-3.357,-3.113,9.338
0.185,0.642,0.748,3.845,-4.944,4.761
0.187,0.591,0.786,9.460,-5.554,0.793
0.190,0.537,0.805,12.634,-4.761,-0.610
0.179,0.486,0.814,11.780,-2.686,0.793
0.170,0.459,0.818,7.141,0.366,3.601
0.162,0.448,0.807,3.113,3.601,7.141
0.166,0.459,0.775,1.282,6.287,11.475
0.165,0.488,0.740,0.793,7.690,15.808
0.174,0.527,0.703,1.160,7.996,19.226
0.186,0.548,0.686,2.686,6.287,21.973
0.170,0.583,0.684,3.845,3.601,23.499
0.189,0.637,0.670,4.456,1.282,24.780
0.203,0.702,0.664,4.089,-0.732,25.574
0.194,0.757,0.686,2.014,-3.540,23.376
0.191,0.764,0.742,0.305,-6.226,17.639
0.174,0.723,0.808,2.625,-7.507,10.803
0.162,0.688,0.855,7.507,-6.958,4.639
0.150,0.639,0.892,12.695,-5.005,0.000
0.138,0.583,0.917,15.991,-2.136,-3.540
0.148,0.516,0.929,18.188,1.587,-5.859
0.166,0.434,0.908,21.240,6.226,-5.737

-0.259,-0.737,2.014,-44.067,76.721,54.688
-0.310,-0.914,2.043,-59.448,98.694,67.871
-0.310,-1.125,2.065,-66.528,118.591,85.083
-0.329,-1.262,2.058,-68.115,137.451,108.459
-0.331,-1.336,1.996,-59.021,156.677,140.076
-0.353,-1.336,1.981,-45.898,172.302,175.476
-0.463,-1.256,1.986,-31.555,185.730,211.426
-0.589,-1.075,1.880,-12.634,200.989,244.934
-0.744,-0.932,1.630,5.554,217.285,273.071
-0.885,-0.743,1.337,11.719,228.760,294.250
-1.008,-0.493,1.022,9.277,235.352,313.477
-1.157,-0.229,0.704,4.822,236.328,333.313
-1.322,0.079,0.408,-4.089,230.957,351.868
-1.476,0.476,0.142,-14.465,222.351,369.385
-1.560,0.882,-0.074,-25.208,210.754,384.216
-1.694,1.282,-0.204,-33.081,195.862,392.517
-1.850,1.559,-0.212,-32.959,180.725,392.029
-1.975,1.694,-0.111,-30.396,169.250,382.629
-2.078,1.789,0.036,-20.447,165.588,369.812
-2.167,1.899,0.155,3.845,170.410,358.398
-2.273,1.982,0.202,40.649,181.274,349.304
-2.412,2.099,0.149,76.721,194.092,340.393
-2.458,2.312,-0.053,103.210,205.505,331.482
-2.364,2.590,-0.318,121.521,209.595,320.007
-2.391,2.943,-0.603,128.296,200.073,299.561
-2.247,3.330,-1.064,130.798,180.420,272.400
-1.982,3.662,-1.486,117.188,150.513,235.168
-1.856,3.868,-1.688,84.656,104.431,181.580
-1.784,3.981,-1.642,44.373,45.349,116.455
-1.747,3.954,-1.471,17.395,-16.052,46.326
-1.795,3.808,-1.226,4.089,-70.801,-24.658
-1.921,3.525,-0.888,-7.446,-114.685,-96.741
-2.066,3.106,-0.500,-18.555,-146.057,-162.903
-2.196,2.639,-0.114,-24.902,-164.734,-218.140
-2.286,2.241,0.228,-24.963,-170.288,-259.583
-2.321,1.884,0.437,-10.132,-163.269,-288.879
-2.291,1.663,0.407,12.390,-147.156,-308.533
-2.151,1.637,0.065,37.415,-129.456,-319.885
-1.965,1.765,-0.528,61.462,-122.070,-326.355
-1.834,1.970,-1.146,72.693,-135.803,-337.708
-1.801,2.172,-1.634,68.909,-175.171,-360.474
-1.861,2.312,-1.864,51.514,-237.488,-395.508
-2.156,2.343,-1.827,32.288,-315.796,-441.467
-2.563,2.192,-1.481,19.470,-397.705,-493.774
-3.130,1.901,-0.935,9.583,-471.130,-547.363
-3.750,1.474,-0.189,3.845,-526.733,-599.121
-4.000,0.797,0.902,-3.357,-561.646,-647.095
-4.000,-0.164,2.393,-23.621,-565.674,-686.096
-4.000,-1.191,3.919,-55.359,-518.372,-703.430
-4.000,-1.978,4.000,-48.279,-409.790,-683.289
-3.432,-2.615,4.000,38.696,-269.165,-623.108
-2.547,-2.985,3.531,153.931,-141.968,-535.339
-1.859,-2.826,2.255,207.764,-55.725,-435.852
-1.562,-2.339,1.193,190.857,-24.475,-340.149
-1.586,-1.890,0.515,112.976,-42.480,-263.062
-1.461,-1.219,0.651,-31.067,-87.097,-214.417
-0.984,-0.227,1.141,-145.996,-132.446,-186.890
-1.136,-0.641,1.192,-83.618,-171.326,-157.471
-1.110,-0.485,1.608,-39.185,-193.665,-140.747
-1.053,-0.285,2.006,-17.334,-190.552,-136.475
-0.877,-0.056,2.308,12.390,-165.283,-141.846
-0.719,-0.290,2.314,66.162,-126.343,-148.621
-0.656,-0.530,2.113,118.042,-82.336,-145.264
-0.582,-0.620,1.853,118.835,-40.161,-134.216
-0.446,-0.705,1.518,101.746,-5.920,-112.671
-0.318,-0.747,1.206,75.317,17.944,-81.787
-0.240,-0.660,0.940,39.490,30.945,-43.457
-0.140,-0.444,0.732,2.808,34.058,-4.639
-0.049,-0.175,0.599,-25.208,30.334,28.870
0.009,0.143,0.548,-45.715,22.461,53.894
0.070,0.456,0.548,-50.720,12.390,69.763
0.110,0.741,0.592,-37.231,0.427,74.341
0.126,0.954,0.664,-12.207,-12.512,67.932
0.105,1.087,0.785,12.268,-24.902,52.917
0.082,1.093,0.945,29.175,-32.471,33.020
0.094,1.018,1.092,37.720,-32.166,12.939
0.095,0.878,1.186,41.321,-23.376,-2.686
0.112,0.739,1.198,39.246,-9.705,-12.390
0.117,0.588,1.130,32.776,5.371,-16.968
0.111,0.492,1.027,23.926,20.325,-16.235
0.134,0.472,0.888,12.451,31.677,-10.193
0.185,0.495,0.752,-3.601,38.696,-2.075
0.174,0.567,0.645,-11.597,39.673,6.348
0.165,0.664,0.573,-13.977,35.583,12.756
0.166,0.738,0.532,-7.812,27.161,15.137
0.162,0.783,0.529,3.784,16.418,13.062
0.148,0.776,0.572,16.357,4.395,6.775
0.132,0.720,0.629,22.827,-5.249,-1.038
0.135,0.637,0.697,24.536,-11.292,-6.653
0.133,0.544,0.780,22.217,-14.709,-10.803
0.131,0.449,0.871,17.883,-14.832,-12.451
0.156,0.376,0.926,15.381,-10.986,-9.888
0.180,0.367,0.942,12.695,-3.967,-3.479
0.179,0.386,0.930,9.888,4.333,4.822
0.171,0.437,0.898,6.531,12.207,12.634
0.174,0.494,0.840,5.310,18.555,19.226
0.151,0.572,0.747,5.249,23.132,24.109
0.173,0.653,0.635,4.578,24.170,26.855
0.189,0.719,0.554,1.892,20.630,26.428
0.193,0.776,0.544,-3.723,13.245,22.827
0.198,0.796,0.594,-7.080,3.357,15.930
0.182,0.773,0.690,-4.639,-4.395,7.263
0.156,0.702,0.769,2.014,-7.507,-1.221
0.163,0.619,0.802,9.277,-6.714,-6.775
0.190,0.531,0.803,13.733,-3.845,-8.484
0.196,0.468,0.785,14.709,-0.488,-6.653
0.203,0.453,0.764,11.841,1.953,-2.014
0.198,0.471,0.751,8.850,3.174,4.456
0.176,0.499,0.739,7.507,3.601,10.193
0.152,0.551,0.719,7.568,3.418,14.465
0.160,0.602,0.692,7.629,2.441,16.846
0.177,0.650,0.688,5.615,0.061,16.907
0.178,0.697,0.712,2.502,-3.113,14.832
0.172,0.728,0.751,0.916,-5.371,11.475
0.162,0.738,0.788,0.122,-6.287,6.775
0.162,0.729,0.822,0.916,-6.104,1.282
0.151,0.692,0.841,4.883,-5.188,-3.967
0.149,0.626,0.848,10.193,-3.845,-8.789
0.151,0.552,0.846,13.672,-2.014,-12.512

-0.286,-1.191,1.956,-48.767,60.181,34.729
-0.297,-1.321,2.109,-57.556,79.651,64.880
-0.349,-1.346,2.133,-49.744,100.952,96.191
-0.410,-1.327,2.074,-31.555,120.850,124.634
-0.436,-1.283,1.988,-16.174,136.230,150.757
-0.523,-1.270,1.925,-6.104,147.278,174.500
-0.634,-1.318,1.942,-4.700,156.067,195.190
-0.724,-1.339,1.976,-11.292,166.565,216.858
-0.844,-1.343,1.944,-16.479,181.030,242.859
-1.000,-1.415,1.858,-19.775,197.388,271.667
-1.231,-1.412,1.700,-29.175,217.712,305.603
-1.446,-1.214,1.343,-41.321,242.493,350.769
-1.709,-0.736,0.841,-58.289,264.038,402.466
-1.873,-0.041,0.288,-79.956,275.940,449.280
-1.921,0.671,-0.121,-97.961,271.729,479.065
-1.944,1.393,-0.326,-106.262,251.953,487.671
-1.973,1.983,-0.432,-91.248,226.746,479.187
-1.990,2.339,-0.460,-50.842,200.928,453.735
-1.943,2.492,-0.381,-3.418,176.453,415.649
-1.942,2.463,-0.257,41.565,158.386,376.465
-2.010,2.509,-0.333,71.289,153.198,346.558
-1.917,2.865,-0.751,75.378,159.607,330.566
-1.804,3.413,-1.266,62.195,159.241,317.078
-1.739,3.849,-1.601,51.697,136.963,288.635
-1.663,4.000,-1.651,46.814,98.633,241.699
-1.626,3.952,-1.412,47.913,55.603,184.082
-1.606,3.646,-1.033,54.077,18.982,127.197
-1.576,3.211,-0.614,56.763,-2.258,80.078
-1.552,2.828,-0.316,49.744,-6.531,44.678
-1.585,2.501,-0.181,44.434,-1.648,18.982
-1.561,2.286,-0.154,39.612,4.822,0.671
-1.532,2.185,-0.162,40.100,6.958,-12.695
-1.546,2.149,-0.219,48.340,4.639,-27.771
-1.515,2.237,-0.502,62.073,-0.427,-44.556
-1.363,2.508,-1.017,72.327,-10.742,-62.073
-1.301,2.925,-1.534,71.472,-38.269,-88.623
-1.336,3.255,-1.813,64.636,-89.233,-132.507
-1.456,3.427,-1.799,57.800,-156.616,-192.871
-1.658,3.360,-1.533,53.711,-226.135,-262.878
-1.952,3.128,-1.200,55.359,-284.363,-336.365
-2.217,2.788,-0.919,58.899,-327.515,-405.945
-2.470,2.407,-0.647,61.279,-360.291,-469.421
-2.698,2.023,-0.349,63.354,-386.047,-525.269
-2.938,1.570,0.021,69.763,-405.090,-574.829
-3.147,0.857,0.722,77.942,-414.490,-615.723
-3.183,-0.074,1.777,62.744,-409.119,-641.479
-3.132,-0.718,2.734,10.986,-372.314,-640.381
-3.147,-0.726,2.979,-21.179,-297.546,-609.497
-3.044,-0.504,2.522,12.390,-216.064,-572.876
-2.999,-0.452,1.974,72.937,-165.527,-562.073
-3.057,-0.770,1.646,117.188,-142.273,-573.547
-2.997,-1.329,1.355,130.310,-126.038,-576.843
-2.743,-1.901,1.039,106.018,-115.417,-551.758
-2.424,-2.367,0.878,48.157,-121.033,-499.817
-2.115,-2.550,1.026,-26.306,-143.311,-428.711
-1.880,-2.491,1.396,-83.435,-169.922,-347.839
-1.653,-2.348,1.785,-97.473,-183.533,-267.639
-1.615,-2.389,1.980,-76.599,-176.453,-195.190
-0.985,-1.861,2.200,-57.373,-151.001,-133.057
-0.894,-1.494,2.250,9.399,-116.638,-73.608
-0.851,-1.015,2.030,67.444,-83.679,-23.560
-0.811,-0.492,1.767,50.842,-52.429,4.456
-0.678,-0.170,1.438,25.085,-27.527,17.456
-0.413,0.178,1.267,-8.057,-15.747,18.005
-0.365,0.276,1.217,-21.423,-16.174,13.428
-0.257,0.405,1.324,-37.903,-18.250,5.188
-0.194,0.346,1.366,-31.616,-14.404,-2.686
-0.095,0.267,1.312,-13.550,-5.005,-6.958
-0.030,0.164,1.162,9.277,4.883,-5.676
0.039,0.160,0.981,25.818,10.681,2.136
0.089,0.194,0.848,32.898,11.414,14.404
0.107,0.272,0.795,32.227,7.629,27.100
0.089,0.377,0.804,30.884,2.075,39.001
0.048,0.531,0.786,28.137,-1.587,48.828
0.072,0.707,0.766,20.569,-3.723,55.115
0.131,0.884,0.804,5.859,-6.104,54.810
0.105,0.990,0.903,-5.859,-8.362,46.875
0.067,1.044,0.975,-10.437,-6.226,33.142
0.077,1.001,0.980,-7.202,0.916,16.846
0.082,0.885,0.928,-0.732,9.338,0.977
0.107,0.744,0.871,4.211,15.259,-9.644
0.104,0.623,0.846,6.165,17.517,-14.587
0.095,0.529,0.859,6.714,17.456,-14.832
0.121,0.476,0.866,10.315,17.639,-11.536
0.162,0.413,0.798,20.203,18.982,-5.188
0.166,0.510,0.721,27.405,19.714,2.930
0.199,0.567,0.639,25.330,18.311,11.230
0.192,0.720,0.622,18.982,14.954,17.029
0.150,0.810,0.646,7.935,11.230,17.090
0.135,0.862,0.668,0.732,8.362,12.695
0.127,0.865,0.687,-2.136,6.531,4.761
0.116,0.799,0.697,-0.916,5.310,-4.211
0.122,0.696,0.717,-0.305,3.601,-12.451
0.129,0.576,0.739,2.136,1.892,-17.822
0.158,0.475,0.747,7.568,0.671,-17.822
0.173,0.424,0.748,14.648,0.122,-13.062
0.169,0.428,0.747,17.578,-0.305,-5.737
0.161,0.458,0.759,15.747,-0.793,1.099
0.137,0.510,0.758,12.085,-0.671,7.324
0.142,0.600,0.736,8.850,0.061,12.146
0.158,0.688,0.734,5.493,-0.671,13.977
0.149,0.738,0.772,1.953,-2.869,10.925
0.136,0.729,0.811,1.404,-3.662,5.066
0.140,0.688,0.812,3.723,-2.380,-0.549
0.139,0.630,0.790,5.798,-0.427,-4.089
0.145,0.604,0.765,5.249,0.977,-6.409
0.146,0.588,0.749,4.639,1.526,-7.568
0.126,0.552,0.751,5.676,1.465,-8.972
0.124,0.501,0.751,6.653,0.977,-10.010
0.122,0.446,0.752,8.118,0.183,-8.179
0.117,0.423,0.756,7.812,-0.610,-4.395
0.117,0.431,0.772,6.104,-1.770,0.366
0.125,0.446,0.792,5.249,-2.869,5.127
0.133,0.474,0.789,6.104,-2.930,9.827
0.143,0.558,0.755,6.592,-2.869,14.648
0.146,0.657,0.739,4.822,-3.662,17.517
0.145,0.721,0.771,1.831,-5.615,15.686
0.133,0.733,0.830,0.427,-6.836,9.949
0.125,0.693,0.865,2.991,-6.042,3.662

-0.428,-0.978,1.971,-55.359,72.266,68.298
-0.462,-1.212,2.071,-75.684,93.628,86.670
-0.458,-1.340,2.083,-87.952,117.676,112.366
-0.498,-1.349,2.005,-88.440,142.334,145.630
-0.583,-1.226,1.850,-78.796,165.771,183.105
-0.673,-1.018,1.629,-58.838,183.716,220.276
-0.787,-0.759,1.411,-33.691,194.946,253.174
-0.902,-0.524,1.234,-11.841,200.134,282.104
-1.018,-0.365,1.120,4.822,201.050,307.190
-1.229,-0.333,1.098,16.235,202.332,331.299
-1.418,-0.306,1.100,17.944,207.275,358.215
-1.619,-0.180,1.057,13.855,218.567,392.090
-1.835,0.080,0.968,3.601,234.863,432.068
-2.041,0.568,0.714,-18.616,252.563,468.567
-2.102,1.311,0.147,-43.457,269.714,494.629
-1.901,2.153,-0.541,-60.730,274.902,500.732
-1.704,2.910,-1.060,-61.218,252.808,475.403
-1.538,3.475,-1.265,-35.278,205.933,418.884
-1.428,3.672,-1.152,12.939,148.010,345.032
-1.418,3.534,-0.854,57.739,96.924,266.296
-1.446,3.230,-0.534,85.144,66.284,199.219
-1.517,2.841,-0.307,100.037,58.167,153.992
-1.553,2.421,-0.196,105.957,64.209,131.226
-1.608,2.179,-0.134,96.436,75.928,126.648
-1.572,2.026,-0.105,81.421,86.914,132.202
-1.619,2.041,-0.040,67.139,93.689,136.963
-1.657,2.036,-0.080,79.285,94.177,137.329
-1.544,2.048,-0.191,98.572,89.722,133.484
-1.475,2.126,-0.311,105.774,79.895,123.718
-1.455,2.267,-0.455,105.164,63.293,107.483
-1.404,2.526,-0.669,101.929,41.809,87.402
-1.303,3.004,-0.959,93.384,14.038,62.561
-1.198,3.643,-1.162,80.017,-22.095,25.757
-1.232,4.000,-1.212,69.275,-68.115,-31.555
-1.380,4.000,-1.048,55.115,-119.202,-113.953
-1.619,4.000,-0.734,41.016,-165.710,-211.731
-1.925,3.641,-0.369,27.222,-200.684,-309.082
-2.207,3.066,-0.025,12.817,-221.497,-393.188
-2.401,2.529,0.220,3.967,-230.103,-458.984
-2.516,2.134,0.339,4.700,-230.469,-507.507
-2.597,1.856,0.307,17.761,-227.966,-544.983
-2.647,1.604,0.140,43.945,-227.600,-578.430
-2.765,1.327,-0.028,73.059,-234.131,-611.633
-2.956,0.945,-0.108,92.346,-249.695,-644.836
-3.133,0.425,0.038,97.229,-269.653,-672.363
-3.139,-0.201,0.466,81.909,-288.086,-684.937
-3.105,-0.579,0.951,33.691,-295.471,-674.683
-3.189,-0.444,1.314,-27.527,-286.804,-645.813
-3.385,-0.145,1.479,-60.120,-270.630,-620.728
-3.636,-0.110,1.567,-60.242,-256.836,-619.202
-3.708,-0.542,1.671,-48.157,-246.643,-634.644
-3.580,-1.306,1.751,-29.419,-235.779,-639.771
-3.199,-2.192,1.739,-8.484,-221.497,-611.267
-2.638,-2.970,1.709,6.165,-207.764,-544.434
-2.227,-3.604,1.753,6.226,-198.608,-444.214
-1.574,-3.407,2.112,-27.283,-185.608,-326.355
-1.269,-2.834,2.284,-20.935,-160.156,-202.332
-1.239,-2.075,2.203,18.738,-126.526,-84.351
-1.212,-1.063,1.988,5.615,-86.670,-2.136
-1.098,-0.225,1.656,-13.672,-50.598,39.124
-0.941,0.285,1.422,-27.161,-31.738,45.654
-0.661,0.752,1.445,-36.316,-28.503,25.208
-0.639,0.584,1.405,-3.540,-32.837,-6.226
-0.521,0.415,1.502,23.315,-35.339,-39.063
-0.400,0.068,1.469,49.194,-28.625,-61.035
-0.265,-0.242,1.296,69.885,-14.709,-61.584
-0.161,-0.351,1.074,61.218,-0.549,-42.297
-0.080,-0.236,0.914,31.799,9.033,-13.855
-0.060,-0.014,0.838,-1.343,13.062,12.756
-0.040,0.225,0.842,-28.992,14.038,31.189
-0.018,0.416,0.887,-42.175,14.160,40.100
0.004,0.543,0.886,-31.311,13.550,43.274
0.025,0.618,0.850,-5.371,10.315,41.931
0.036,0.677,0.796,19.287,5.371,38.086
0.046,0.747,0.766,33.447,-0.488,33.752
0.078,0.806,0.763,38.208,-6.226,28.564
0.099,0.853,0.810,38.513,-11.841,21.240
0.097,0.865,0.895,36.560,-15.320,12.451
0.084,0.819,0.960,31.494,-14.954,3.052
0.091,0.731,1.001,23.376,-10.437,-4.700
0.110,0.615,1.013,10.559,-3.845,-10.254
0.129,0.503,1.004,-2.136,3.723,-11.841
0.137,0.426,0.961,-10.864,11.536,-7.996
0.138,0.411,0.883,-16.785,17.700,-0.610
0.140,0.475,0.809,-18.738,20.630,7.751
0.112,0.533,0.738,-13.550,20.020,13.489
0.101,0.594,0.708,-5.798,16.296,14.343
0.086,0.643,0.702,1.221,10.925,11.292
0.073,0.641,0.711,9.094,5.554,6.287
0.070,0.590,0.747,12.573,1.343,0.244
0.087,0.519,0.793,11.414,-1.282,-4.089
0.098,0.444,0.829,9.705,-1.282,-5.615
0.116,0.397,0.845,6.165,0.305,-4.700
0.119,0.369,0.847,2.747,2.747,-2.136
0.117,0.366,0.832,0.610,4.944,2.380
0.118,0.397,0.804,0.061,6.348,7.629
0.124,0.433,0.771,2.869,6.592,12.207
0.114,0.468,0.739,8.972,4.761,15.198
0.134,0.513,0.727,12.390,1.465,16.602
0.158,0.550,0.754,13.123,-2.319,17.090
0.151,0.599,0.807,11.658,-4.822,16.541
0.144,0.637,0.853,10.620,-5.493,14.832
0.130,0.652,0.868,9.583,-4.333,11.536
0.123,0.638,0.872,6.409,-1.465,7.019
0.113,0.616,0.870,1.160,1.770,2.441
0.101,0.569,0.861,-1.160,4.333,-1.770
0.092,0.505,0.845,-1.221,6.165,-4.639
0.083,0.443,0.833,-0.977,7.080,-6.287
0.092,0.379,0.831,-0.488,7.324,-5.920
0.117,0.330,0.821,3.418,7.446,-2.991
0.139,0.354,0.774,11.597,6.836,3.174
0.148,0.415,0.716,20.813,4.395,11.841
0.139,0.520,0.698,22.156,0.000,18.127
0.138,0.597,0.721,21.118,-4.456,20.325
0.131,0.666,0.764,17.822,-7.324,19.348
0.137,0.703,0.818,13.733,-8.728,15.808
0.117,0.698,0.875,10.376,-7.935,10.376
0.091,0.668,0.917,5.981,-5.005,3.906
0.086,0.624,0.931,2.686,-0.671,-1.465

-0.417,-1.366,2.142,-47.729,85.449,50.537
-0.485,-1.771,2.361,-64.087,111.328,78.186
-0.527,-2.115,2.427,-81.543,143.921,114.319
-0.636,-2.267,2.320,-93.994,179.749,157.776
-0.750,-2.205,2.020,-94.360,210.449,208.801
-0.893,-1.916,1.619,-83.191,230.530,263.428
-1.095,-1.373,1.151,-68.665,238.770,317.200
-1.232,-0.706,0.661,-53.711,235.291,364.075
-1.372,-0.078,0.297,-43.701,219.666,397.827
-1.545,0.466,0.136,-40.649,194.214,416.626
-1.664,0.982,0.141,-39.795,170.044,425.842
-1.798,1.356,0.240,-34.180,156.006,429.138
-1.946,1.688,0.342,-30.457,155.151,425.476
-2.094,1.850,0.333,-23.499,168.457,417.114
-2.264,1.775,0.312,-16.846,189.453,402.710
-2.348,1.725,0.319,-14.587,212.585,387.695
-2.481,1.726,0.291,11.353,234.375,382.202
-2.656,1.864,0.223,65.918,249.695,385.986
-2.728,2.160,0.044,127.930,255.737,391.113
-2.671,2.708,-0.367,179.932,250.183,391.296
-2.460,3.290,-0.816,210.815,226.440,377.563
-2.367,3.898,-1.132,205.872,182.922,342.285
-1.971,4.000,-2.324,171.631,124.451,272.522
-1.720,4.000,-1.349,148.743,37.476,112.915
-1.466,4.000,-1.257,148.315,-13.123,24.597
-1.838,4.000,-1.294,74.951,-49.988,-19.470
-2.041,4.000,-1.049,-2.686,-99.854,-93.018
-2.252,4.000,-0.625,-46.814,-145.508,-191.895
-2.598,3.858,-0.160,-41.260,-176.025,-292.358
-2.897,3.306,0.245,-23.193,-188.293,-378.662
-3.056,2.813,0.493,-2.502,-182.251,-444.275
-3.137,2.424,0.462,22.461,-162.231,-490.356
-3.072,2.190,0.079,47.668,-139.465,-520.813
-2.922,2.085,-0.469,65.552,-129.333,-542.664
-2.835,2.034,-0.993,69.885,-143.250,-565.918
-2.824,1.903,-1.308,60.852,-180.481,-593.872
-2.924,1.665,-1.382,39.917,-233.032,-621.582
-3.077,1.395,-1.251,7.507,-292.664,-643.799
-3.312,1.112,-0.917,-27.283,-353.638,-659.302
-3.610,0.822,-0.312,-59.814,-409.180,-669.128
-4.000,0.637,0.437,-79.651,-451.904,-674.133
-4.000,0.450,1.118,-59.265,-465.149,-676.758
-4.000,-0.066,1.823,-8.423,-452.637,-690.186
-4.000,-1.003,2.663,41.504,-419.189,-712.158
-4.000,-2.290,3.353,82.642,-354.309,-716.614
-3.697,-3.603,3.645,111.694,-257.141,-675.964
-3.082,-4.000,3.417,121.338,-151.917,-575.439
-2.785,-4.000,2.895,91.431,-63.599,-427.551
-2.430,-3.887,2.275,20.874,-3.174,-271.729
-2.086,-2.937,1.770,-87.524,29.053,-150.146
-1.750,-2.021,1.367,-173.584,38.452,-66.345
-1.623,-1.454,1.009,-211.914,29.480,-11.963
-0.940,-0.765,0.833,-208.679,7.690,9.766
-0.708,0.027,0.988,-123.169,-22.888,13.245
-0.786,-0.183,0.822,8.789,-60.547,11.047
-0.657,-0.073,1.130,52.490,-92.712,-2.563
-0.612,-0.122,1.444,71.411,-104.431,-15.991
-0.421,-0.250,1.650,78.247,-96.375,-18.250
-0.271,-0.240,1.746,69.214,-74.524,-6.531
-0.141,-0.034,1.680,51.025,-44.373,15.076
-0.100,0.101,1.414,39.001,-15.259,40.527
-0.079,0.399,1.234,14.038,4.456,59.082
-0.051,0.676,1.064,-10.376,17.944,68.054
0.020,0.863,0.877,-18.677,26.123,70.190
0.082,1.036,0.745,-18.433,26.917,66.284
0.084,1.162,0.700,-9.094,20.569,56.641
0.055,1.225,0.681,1.831,12.085,42.419
0.096,1.208,0.667,13.184,4.822,26.123
0.148,1.156,0.697,18.738,-1.465,10.742
0.169,1.072,0.768,22.339,-6.592,-1.770
0.163,0.990,0.846,28.076,-9.766,-10.681
0.129,0.885,0.908,34.546,-9.583,-17.944
0.107,0.769,0.961,36.987,-6.348,-22.949
0.087,0.676,1.003,33.020,-0.488,-24.719
0.055,0.611,1.006,25.879,8.545,-23.682
0.033,0.566,0.946,20.325,18.250,-21.057
0.015,0.538,0.815,16.235,26.001,-17.334
0.025,0.537,0.690,8.484,29.175,-13.123
0.046,0.539,0.616,-0.061,26.489,-10.132
0.057,0.519,0.610,-4.089,19.653,-8.240
0.065,0.509,0.643,-2.747,12.329,-6.409
0.070,0.520,0.662,4.150,6.287,-3.845
0.087,0.517,0.670,15.442,1.099,-1.648
0.104,0.539,0.721,21.240,-4.028,-0.061
0.109,0.577,0.803,22.461,-7.446,0.427
0.103,0.588,0.873,25.330,-7.996,0.488
0.093,0.578,0.913,27.771,-5.676,-0.793
0.088,0.545,0.925,27.832,-1.953,-2.258
0.076,0.528,0.884,25.269,3.662,-2.197
0.099,0.522,0.794,21.240,8.911,-0.244
0.138,0.538,0.716,14.038,11.353,2.625
