aX,aY,aZ,gX,gY,gZ
-0.777,1.540,1.077,-107.239,-318.542,147.888
-0.666,1.834,1.565,-123.169,-312.805,131.042
-0.518,2.073,1.989,-125.793,-291.260,110.413
-0.380,2.346,2.336,-123.718,-257.385,82.275
-0.337,2.610,2.578,-115.662,-215.027,44.312
-0.326,2.741,2.649,-102.539,-168.152,-3.601
-0.339,2.661,2.559,-89.417,-121.155,-60.547
-0.410,2.421,2.365,-84.595,-77.148,-119.629
-0.483,2.082,2.106,-87.341,-39.917,-170.715
-0.528,1.685,1.856,-95.337,-11.719,-210.022
-0.526,1.337,1.683,-101.868,6.165,-234.863
-0.494,1.037,1.643,-100.891,16.479,-246.399
-0.460,0.829,1.742,-99.670,23.193,-248.535
-0.411,0.714,1.911,-95.215,32.776,-244.629
-0.332,0.624,2.075,-80.872,49.011,-237.427
-0.262,0.550,2.223,-58.716,71.228,-230.530
-0.283,0.486,2.329,-31.433,97.656,-224.487
-0.335,0.405,2.304,2.686,129.089,-217.957
-0.464,0.391,2.173,39.307,164.246,-207.947
-0.554,0.467,1.842,82.092,198.425,-192.810
-0.537,0.550,1.502,112.061,224.670,-178.223
-0.590,0.623,1.172,114.136,238.586,-171.570
-0.568,0.590,0.873,101.318,241.394,-170.105
-0.460,0.550,0.729,74.707,235.229,-172.119
-0.360,0.471,0.724,46.814,224.243,-176.697
-0.336,0.425,0.759,26.794,215.027,-179.749
-0.276,0.381,0.763,18.188,210.144,-179.749
-0.212,0.355,0.732,23.315,208.130,-178.528
-0.202,0.302,0.649,37.659,208.191,-177.917
-0.187,0.237,0.521,53.955,208.801,-176.880
-0.177,0.163,0.379,63.538,207.092,-174.805
-0.174,0.053,0.199,67.871,202.332,-169.983
-0.166,-0.099,0.004,70.251,194.763,-160.950
-0.088,-0.255,-0.201,68.054,182.800,-147.583
0.035,-0.360,-0.361,60.791,165.833,-130.859
0.150,-0.446,-0.448,53.955,144.043,-112.061
0.241,-0.452,-0.452,46.204,118.835,-90.759
0.335,-0.356,-0.372,39.673,93.994,-68.542
0.400,-0.194,-0.244,40.466,71.655,-47.668
0.414,-0.024,-0.129,45.593,55.725,-32.104
0.448,0.116,-0.082,55.115,46.692,-22.827
0.497,0.208,-0.079,62.683,40.283,-18.372
0.522,0.250,-0.084,64.819,32.959,-17.395
0.549,0.260,-0.055,60.913,24.536,-17.639
0.552,0.236,0.017,54.810,15.625,-17.578
0.573,0.207,0.123,43.152,8.972,-16.418
0.583,0.188,0.219,31.799,6.104,-14.099
0.575,0.173,0.271,24.536,6.042,-9.888
0.583,0.146,0.273,21.729,7.812,-4.272
0.605,0.172,0.263,16.846,8.911,1.282
0.624,0.232,0.253,12.451,8.240,6.714
0.634,0.301,0.243,12.085,5.493,10.132
0.666,0.360,0.238,13.062,1.709,11.353
0.670,0.397,0.249,13.855,-2.441,9.399
0.672,0.416,0.276,13.977,-5.554,5.493
0.665,0.362,0.305,18.860,-7.996,0.793
0.670,0.279,0.328,22.339,-10.132,-2.563
0.678,0.218,0.370,22.156,-12.085,-2.686
0.680,0.195,0.407,22.827,-13.794,0.977
0.669,0.238,0.431,23.376,-14.587,7.019
0.657,0.293,0.435,23.682,-14.526,12.695
0.671,0.350,0.436,20.142,-14.954,15.747
0.684,0.398,0.465,15.747,-16.907,16.235
0.684,0.412,0.514,14.954,-19.653,15.564
0.687,0.412,0.559,14.954,-20.813,13.977
0.682,0.415,0.577,14.709,-20.691,12.878
0.687,0.414,0.576,16.296,-19.043,13.123
0.691,0.408,0.569,17.273,-17.639,13.306
0.684,0.410,0.565,13.550,-17.212,12.756
0.693,0.424,0.578,9.583,-16.785,12.573
0.705,0.446,0.610,9.338,-16.602,12.573
0.712,0.474,0.646,11.841,-16.724,11.475
0.704,0.482,0.668,16.907,-16.235,9.705
0.715,0.480,0.671,20.203,-14.526,7.385
0.723,0.478,0.663,20.508,-12.024,5.066
0.725,0.467,0.662,19.165,-9.521,3.357
0.715,0.454,0.673,16.113,-7.202,1.648
0.703,0.439,0.685,11.658,-5.066,0.122
0.698,0.418,0.692,8.545,-2.136,-1.099
0.691,0.401,0.687,5.127,1.221,-2.258
0.682,0.391,0.663,3.601,4.150,-2.747
0.680,0.380,0.640,3.540,5.920,-2.991
0.683,0.371,0.628,3.235,6.653,-3.235
0.676,0.371,0.614,2.930,6.775,-3.418
0.676,0.370,0.588,4.272,7.141,-3.357
0.687,0.351,0.556,5.798,7.202,-2.991
0.693,0.335,0.529,5.310,6.226,-2.380
0.699,0.328,0.518,2.808,4.761,-1.648
0.704,0.335,0.522,-0.488,2.625,-0.122
0.704,0.348,0.535,-1.953,0.427,1.831
0.704,0.375,0.548,-3.357,-0.793,4.333
0.698,0.408,0.557,-2.930,-1.831,5.981
0.692,0.440,0.568,-0.671,-2.136,6.531
0.688,0.451,0.579,2.136,-3.052,5.859
0.688,0.450,0.601,3.723,-3.601,3.113
0.689,0.434,0.627,4.883,-3.357,0.366
0.685,0.409,0.631,7.202,-2.319,-1.282
0.681,0.380,0.612,8.423,0.000,-1.953
0.679,0.359,0.589,8.118,2.075,-1.831
0.673,0.364,0.573,5.371,3.418,-1.038
0.666,0.373,0.556,3.601,3.784,-0.549
0.676,0.383,0.545,3.479,3.845,-0.122
0.679,0.382,0.543,3.967,3.601,0.061
0.686,0.382,0.540,3.174,3.113,-0.366
0.682,0.382,0.543,2.869,2.380,-1.038
0.681,0.368,0.541,4.639,1.892,-1.587
0.686,0.358,0.532,6.653,1.465,-2.014
0.689,0.358,0.526,7.874,0.610,-1.648
0.682,0.355,0.527,9.521,-0.732,-0.793
0.682,0.353,0.533,9.521,-1.831,-0.183
0.676,0.360,0.548,8.667,-2.747,0.305
0.675,0.350,0.556,9.216,-3.540,0.732
0.678,0.365,0.578,7.935,-3.845,0.977
0.680,0.368,0.600,9.460,-4.028,1.099
0.666,0.383,0.617,11.230,-3.784,0.916
0.668,0.391,0.625,11.597,-2.563,0.732
0.670,0.397,0.615,11.658,-0.732,0.916
0.671,0.404,0.599,9.705,1.038,0.610
0.668,0.406,0.575,7.263,1.892,0.366

-0.410,1.201,2.112,5.676,-267.578,118.896
-0.357,1.428,2.450,7.568,-240.051,103.210
-0.371,1.592,2.558,3.357,-199.402,77.820
-0.317,1.681,2.443,-10.376,-153.381,46.204
-0.311,1.595,2.236,-15.808,-114.746,11.536
-0.317,1.452,2.084,-29.358,-88.623,-22.522
-0.316,1.276,2.028,-48.950,-71.289,-52.185
-0.274,1.088,2.061,-69.580,-57.068,-75.623
-0.214,0.935,2.169,-90.393,-43.091,-93.994
-0.155,0.799,2.326,-98.938,-28.931,-106.873
-0.153,0.684,2.491,-99.060,-12.573,-115.784
-0.146,0.603,2.589,-93.079,8.240,-122.375
-0.163,0.542,2.577,-81.055,32.959,-126.953
-0.206,0.490,2.490,-65.125,57.068,-130.493
-0.231,0.436,2.376,-51.392,77.515,-133.667
-0.297,0.385,2.294,-46.021,94.849,-135.803
-0.352,0.385,2.266,-53.711,110.840,-137.329
-0.403,0.353,2.252,-62.683,126.160,-138.733
-0.433,0.343,2.259,-70.190,142.334,-141.968
-0.449,0.286,2.260,-71.228,158.691,-146.606
-0.460,0.192,2.262,-63.843,176.819,-151.062
-0.500,0.068,2.230,-50.720,197.510,-153.076
-0.567,-0.033,2.095,-32.654,221.252,-150.574
-0.635,-0.048,1.828,-11.108,244.751,-142.578
-0.650,-0.008,1.455,13.733,262.939,-131.409
-0.648,0.075,1.065,36.377,271.790,-121.887
-0.626,0.074,0.675,54.138,270.142,-115.723
-0.545,0.018,0.365,60.608,259.460,-113.647
-0.420,-0.073,0.180,54.565,243.286,-112.183
-0.269,-0.242,0.113,41.321,224.487,-107.544
-0.157,-0.321,0.162,19.043,206.482,-98.267
-0.080,-0.344,0.229,0.366,193.420,-83.618
-0.013,-0.304,0.240,-5.798,185.547,-66.589
0.006,-0.149,0.235,-7.812,180.664,-52.795
0.027,-0.031,0.073,0.000,175.293,-43.396
0.132,0.066,-0.052,8.423,167.480,-40.222
0.158,0.079,-0.112,19.409,153.625,-42.236
0.179,0.117,-0.082,21.729,138.245,-45.105
0.207,0.104,-0.085,26.978,125.916,-45.044
0.241,0.047,-0.144,33.875,117.065,-41.077
0.269,0.021,-0.184,32.043,108.337,-34.790
0.296,0.018,-0.182,23.193,97.473,-27.405
0.352,0.040,-0.160,12.207,86.121,-20.386
0.377,0.063,-0.140,6.897,76.111,-14.587
0.420,0.108,-0.123,7.019,67.078,-9.338
0.496,0.142,-0.066,10.742,58.289,-5.737
0.532,0.208,0.022,13.794,49.438,-4.822
0.549,0.279,0.093,17.761,41.748,-5.737
0.559,0.298,0.119,28.137,35.889,-7.935
0.559,0.303,0.119,36.438,31.067,-10.803
0.553,0.297,0.100,41.504,25.879,-13.184
0.559,0.236,0.095,42.419,19.287,-14.587
0.571,0.170,0.130,32.776,11.902,-15.320
0.578,0.098,0.193,18.677,5.005,-14.587
0.603,0.055,0.254,5.737,-0.061,-10.681
0.627,0.035,0.306,-3.113,-3.113,-3.723
0.643,0.071,0.352,-7.202,-4.883,5.127
0.652,0.144,0.362,-6.958,-6.958,14.099
0.662,0.243,0.370,-4.578,-11.108,20.264
0.680,0.321,0.400,-2.869,-15.869,22.034
0.685,0.378,0.440,-1.404,-20.264,19.836
0.691,0.409,0.487,2.747,-23.499,16.479
0.698,0.378,0.531,10.864,-25.452,12.817
0.686,0.355,0.567,15.625,-26.306,8.423
0.667,0.355,0.572,17.334,-25.757,6.470
0.667,0.354,0.554,20.813,-24.658,6.897
0.644,0.354,0.541,21.240,-24.536,7.507
0.644,0.350,0.555,14.160,-25.452,7.080
0.637,0.349,0.587,7.385,-27.588,6.409
0.626,0.345,0.637,3.418,-28.381,5.432
0.629,0.308,0.697,4.639,-27.954,4.517
0.640,0.328,0.763,6.470,-26.489,3.723
0.626,0.331,0.795,14.648,-22.949,3.296
0.624,0.317,0.797,25.452,-17.090,2.930
0.634,0.313,0.759,32.043,-10.925,1.953
0.628,0.299,0.715,33.936,-6.592,0.061
0.629,0.290,0.661,32.898,-4.211,-1.587
0.633,0.271,0.597,28.809,-2.380,-2.319
0.639,0.260,0.542,20.813,-2.136,-2.502
0.652,0.220,0.522,10.254,-3.601,-2.380
0.658,0.213,0.539,-0.305,-5.920,-1.160
0.682,0.215,0.563,-4.822,-9.583,1.526
0.679,0.269,0.600,-3.357,-12.512,4.639
0.663,0.274,0.612,4.456,-13.794,7.202
0.677,0.303,0.629,7.690,-14.343,8.179
0.681,0.321,0.652,5.371,-14.954,7.568
0.679,0.329,0.686,3.723,-15.564,6.348
0.678,0.346,0.727,2.686,-15.442,5.127
0.658,0.332,0.741,4.089,-13.794,4.089
0.662,0.315,0.743,5.371,-11.536,2.869
0.663,0.341,0.740,4.700,-9.155,2.380
0.661,0.333,0.718,7.996,-7.568,3.540
0.663,0.336,0.698,7.568,-6.653,4.395
0.666,0.342,0.690,2.258,-6.470,4.211
0.670,0.328,0.686,-1.526,-6.775,3.662
0.670,0.320,0.693,-4.211,-7.263,3.479
0.670,0.308,0.697,-6.409,-7.812,3.357
0.669,0.313,0.700,-6.775,-8.301,3.479
0.673,0.350,0.705,-5.554,-8.850,3.723
0.665,0.367,0.715,1.221,-9.094,4.150
0.652,0.350,0.718,8.240,-9.827,3.113
0.645,0.352,0.740,8.789,-9.827,0.916
0.639,0.331,0.749,9.277,-9.033,-1.160
0.638,0.296,0.751,12.329,-8.118,-2.136
0.641,0.275,0.749,12.573,-6.897,-2.197
0.642,0.267,0.742,11.475,-5.432,-1.526
0.636,0.273,0.731,10.925,-4.211,-0.061
0.629,0.278,0.717,11.475,-3.723,1.099
0.625,0.280,0.709,11.047,-3.784,2.258
0.619,0.289,0.709,8.728,-3.723,2.747
0.622,0.288,0.709,6.958,-4.333,3.052
0.622,0.293,0.722,5.554,-5.310,3.479
0.620,0.301,0.734,2.808,-5.432,3.906
0.631,0.303,0.742,0.305,-4.761,4.395
0.642,0.338,0.746,-1.404,-3.845,4.822
0.631,0.362,0.743,-1.343,-2.014,5.493
0.634,0.371,0.715,3.052,0.244,4.517
0.637,0.383,0.694,4.395,1.953,1.892
0.635,0.365,0.675,8.972,1.526,-1.526

-0.529,1.083,1.606,-61.279,-289.307,62.500
-0.436,1.170,1.950,-64.026,-268.188,55.298
-0.352,1.267,2.179,-61.340,-236.816,46.204
-0.323,1.370,2.278,-53.162,-200.012,31.738
-0.342,1.412,2.293,-44.617,-161.438,10.559
-0.346,1.380,2.232,-41.260,-125.000,-15.198
-0.344,1.291,2.147,-41.260,-92.346,-42.542
-0.351,1.135,2.099,-37.537,-66.345,-66.589
-0.369,1.009,2.069,-35.400,-45.349,-84.961
-0.379,0.897,2.034,-33.081,-26.245,-96.436
-0.395,0.829,2.001,-31.311,-8.911,-103.088
-0.390,0.783,1.989,-29.785,5.798,-107.666
-0.387,0.769,2.063,-31.189,18.677,-112.488
-0.393,0.741,2.193,-35.034,31.494,-119.202
-0.382,0.642,2.382,-37.231,47.607,-127.502
-0.370,0.534,2.650,-40.833,67.322,-136.108
-0.418,0.466,2.946,-43.152,92.834,-143.372
-0.506,0.393,3.112,-33.997,128.235,-147.522
-0.639,0.400,3.145,-21.973,173.706,-149.719
-0.763,0.359,2.980,-3.723,222.961,-151.978
-0.900,0.268,2.698,12.817,269.409,-154.907
-1.068,0.172,2.403,21.606,310.059,-157.410
-1.138,0.077,2.061,20.569,342.896,-157.532
-1.164,0.001,1.623,23.621,366.394,-155.212
-1.130,0.063,1.063,38.025,379.150,-148.376
-0.986,0.110,0.499,57.739,377.747,-137.146
-0.839,0.114,0.052,67.688,359.131,-128.906
-0.698,0.086,-0.231,62.073,327.576,-127.502
-0.537,0.015,-0.332,48.950,290.588,-128.906
-0.387,-0.110,-0.326,37.903,255.371,-130.005
-0.258,-0.269,-0.298,32.349,226.746,-127.625
-0.125,-0.398,-0.279,30.273,204.834,-118.591
-0.020,-0.442,-0.284,30.029,187.805,-102.356
0.074,-0.458,-0.316,28.625,172.852,-81.665
0.141,-0.428,-0.307,23.376,157.288,-60.608
0.203,-0.317,-0.245,15.259,141.052,-41.504
0.255,-0.111,-0.187,11.475,127.136,-25.940
0.256,0.075,-0.190,18.066,115.723,-15.198
0.295,0.130,-0.245,30.151,104.370,-11.108
0.332,0.150,-0.281,36.255,89.417,-13.916
0.412,0.140,-0.246,30.212,72.388,-19.104
0.483,0.089,-0.156,24.170,56.030,-22.400
0.540,0.028,-0.044,22.034,41.504,-21.729
0.572,0.009,0.070,19.531,30.334,-17.273
0.581,0.039,0.172,19.226,23.804,-9.766
0.573,0.120,0.240,22.583,21.179,-2.441
0.574,0.173,0.269,28.992,20.203,2.258
0.560,0.199,0.274,33.875,18.860,2.930
0.556,0.206,0.267,32.471,16.541,0.671
0.553,0.168,0.254,29.358,12.939,-1.587
0.540,0.117,0.249,23.437,8.484,-2.014
0.563,0.093,0.265,14.526,3.113,-0.427
0.583,0.076,0.309,8.667,-2.563,3.174
0.599,0.103,0.368,6.958,-7.690,8.362
0.606,0.173,0.414,6.958,-12.207,14.343
0.615,0.233,0.428,9.338,-15.442,18.250
0.640,0.323,0.451,11.108,-18.311,18.433
0.625,0.312,0.448,16.052,-21.484,16.113
0.687,0.378,0.487,15.808,-24.414,12.695
0.670,0.339,0.496,26.733,-29.236,7.690
0.660,0.302,0.539,32.837,-33.875,2.869
0.679,0.265,0.589,31.372,-36.011,0.366
0.677,0.234,0.617,30.090,-36.743,0.610
0.667,0.221,0.656,24.414,-36.133,2.869
0.659,0.219,0.701,15.747,-34.790,5.554
0.644,0.223,0.726,7.568,-32.837,7.629
0.646,0.240,0.732,0.610,-29.480,9.338
0.658,0.250,0.747,-4.456,-25.574,10.498
0.658,0.296,0.786,-9.338,-22.583,9.827
0.661,0.280,0.820,-7.629,-19.653,8.057
0.657,0.250,0.828,-3.113,-15.198,5.066
0.653,0.224,0.820,-0.183,-10.254,2.136
0.645,0.215,0.782,3.967,-6.470,0.671
0.646,0.243,0.723,8.606,-4.456,1.221
0.643,0.269,0.678,12.146,-4.395,2.563
0.648,0.266,0.661,12.634,-6.165,2.747
0.653,0.260,0.670,8.484,-8.850,1.404
0.662,0.263,0.693,4.761,-11.292,0.305
0.653,0.258,0.706,5.127,-12.024,0.549
0.655,0.240,0.703,6.958,-11.902,1.282
0.663,0.227,0.697,6.042,-11.597,2.258
0.673,0.250,0.709,4.333,-11.780,3.357
0.670,0.267,0.738,4.700,-11.841,4.761
0.665,0.280,0.761,6.470,-10.986,4.456
0.654,0.287,0.762,6.653,-9.277,2.197
0.644,0.260,0.745,6.287,-7.263,-0.549
0.639,0.239,0.732,2.747,-5.920,-2.319
0.635,0.263,0.735,-1.526,-5.554,-2.441
0.628,0.242,0.732,0.549,-5.371,-0.854
0.625,0.219,0.725,2.197,-5.249,0.488
0.625,0.205,0.728,0.061,-5.615,0.671
0.621,0.194,0.730,-1.221,-5.859,1.160
0.615,0.191,0.712,-1.465,-6.531,2.686
0.604,0.226,0.701,-3.113,-7.690,5.066
0.611,0.297,0.728,-4.517,-9.644,7.080
0.621,0.304,0.759,-0.183,-11.414,7.446
0.634,0.282,0.786,4.456,-12.512,5.188
0.631,0.287,0.831,5.066,-12.146,2.747
0.642,0.276,0.839,5.737,-9.521,1.099
0.635,0.259,0.826,8.545,-6.104,0.427
0.625,0.277,0.802,9.216,-3.296,0.854
0.626,0.296,0.774,9.155,-1.221,1.343
0.608,0.261,0.746,14.099,0.061,0.488
0.608,0.229,0.733,13.123,0.366,-0.854
0.608,0.213,0.738,9.399,0.122,-1.587
0.603,0.190,0.736,8.972,-0.427,-0.793
0.603,0.184,0.722,9.766,-0.732,1.099
0.615,0.186,0.704,8.667,-0.793,3.418
0.623,0.198,0.689,5.737,-1.526,5.676
0.623,0.233,0.688,2.441,-2.869,7.446
0.626,0.287,0.698,0.854,-3.967,9.216
0.635,0.309,0.714,2.441,-4.761,9.583
0.629,0.346,0.725,5.676,-5.310,7.629
0.629,0.345,0.744,6.165,-5.493,4.822
0.627,0.325,0.758,7.141,-5.371,1.038
0.621,0.297,0.765,6.653,-4.944,-1.892
0.610,0.296,0.762,5.554,-4.150,-2.869
0.599,0.294,0.758,7.080,-2.869,-2.563
0.598,0.257,0.744,11.414,-1.465,-1.892

-0.706,0.669,1.517,-54.199,-294.800,79.651
-0.629,0.774,1.552,-50.842,-273.865,81.665
-0.560,0.962,1.538,-60.120,-252.686,81.238
-0.509,1.197,1.573,-72.083,-234.314,78.552
-0.489,1.435,1.675,-81.787,-218.750,68.909
-0.463,1.645,1.868,-89.172,-202.393,48.462
-0.441,1.747,2.089,-93.384,-182.739,18.677
-0.416,1.773,2.289,-97.961,-158.508,-14.832
-0.436,1.709,2.438,-98.328,-129.150,-49.255
-0.459,1.565,2.531,-94.177,-96.252,-80.017
-0.478,1.385,2.622,-84.473,-61.951,-105.469
-0.490,1.227,2.772,-72.510,-27.832,-123.474
-0.529,1.106,2.977,-59.937,6.653,-136.780
-0.570,1.005,3.154,-44.495,49.316,-149.719
-0.609,0.912,3.273,-22.400,98.145,-160.522
-0.671,0.894,3.294,0.793,149.353,-169.861
-0.785,0.908,3.160,28.381,203.796,-178.284
-0.950,0.905,2.870,59.692,257.019,-186.584
-1.139,0.909,2.507,82.153,304.504,-195.862
-1.302,0.822,2.057,90.332,343.262,-204.895
-1.414,0.694,1.606,82.886,372.314,-213.257
-1.415,0.570,1.158,55.298,389.587,-217.651
-1.305,0.439,0.748,28.503,393.066,-217.896
-1.097,0.260,0.434,8.484,381.104,-213.440
-0.842,0.081,0.279,-3.113,355.652,-206.787
-0.646,-0.056,0.291,-5.310,323.853,-198.303
-0.512,-0.138,0.396,3.052,294.067,-186.035
-0.428,-0.094,0.445,19.653,273.621,-169.983
-0.393,-0.016,0.310,46.387,263.184,-153.137
-0.326,-0.037,0.046,77.698,258.362,-140.076
-0.255,-0.065,-0.211,95.093,250.000,-133.728
-0.236,-0.132,-0.381,87.769,236.267,-130.737
-0.211,-0.280,-0.501,65.491,218.323,-127.014
-0.125,-0.487,-0.591,37.903,198.303,-118.225
-0.032,-0.648,-0.658,12.024,175.354,-100.952
0.127,-0.674,-0.693,-5.066,150.391,-76.660
0.253,-0.619,-0.705,-4.272,122.742,-49.438
0.313,-0.488,-0.664,7.446,91.675,-22.400
0.340,-0.276,-0.544,15.198,60.364,-0.061
0.368,-0.062,-0.403,18.738,34.790,13.855
0.420,0.075,-0.244,20.081,16.724,18.372
0.483,0.175,-0.079,22.827,3.235,15.808
0.510,0.229,0.056,30.701,-6.348,11.230
0.555,0.210,0.170,40.344,-12.512,7.935
0.610,0.202,0.334,39.246,-15.381,6.348
0.627,0.257,0.510,29.297,-14.526,6.531
0.627,0.300,0.645,21.118,-7.935,9.521
0.634,0.360,0.737,12.329,2.197,12.024
0.627,0.419,0.770,1.404,15.015,10.864
0.637,0.439,0.722,-3.662,27.832,6.531
0.643,0.422,0.626,-5.615,38.025,1.038
0.630,0.380,0.511,-8.972,44.250,-3.601
0.632,0.356,0.391,-11.841,46.265,-6.714
0.678,0.325,0.260,-9.949,43.762,-7.507
0.694,0.275,0.163,-3.052,36.377,-6.409
0.703,0.265,0.105,1.587,24.841,-4.517
0.710,0.235,0.099,6.409,10.925,-2.808
0.728,0.243,0.159,9.644,-3.357,-0.793
0.711,0.245,0.247,13.062,-16.541,1.709
0.749,0.302,0.358,19.653,-26.733,4.272
0.723,0.281,0.431,33.325,-35.339,4.944
0.721,0.296,0.539,34.058,-39.978,3.967
0.731,0.295,0.627,29.175,-40.161,4.028
0.737,0.287,0.675,23.804,-36.499,6.165
0.743,0.318,0.696,14.648,-30.090,8.911
0.735,0.344,0.693,6.226,-22.766,10.559
0.725,0.355,0.678,0.427,-16.418,10.803
0.702,0.376,0.659,-3.723,-11.475,9.399
0.682,0.349,0.619,-3.296,-7.629,7.446
0.686,0.324,0.580,-3.052,-6.042,5.066
0.679,0.315,0.553,-1.648,-6.958,3.784
0.673,0.302,0.546,2.258,-9.766,4.211
0.683,0.305,0.567,5.310,-13.611,5.188
0.697,0.323,0.601,7.141,-16.968,5.493
0.706,0.345,0.631,12.634,-18.616,5.066
0.708,0.345,0.632,22.644,-18.677,3.784
0.709,0.351,0.616,31.189,-18.372,2.136
0.701,0.354,0.603,32.227,-17.578,0.610
0.702,0.349,0.612,26.062,-16.907,-0.244
0.714,0.331,0.632,17.639,-15.686,-0.183
0.713,0.313,0.647,9.827,-13.306,0.549
0.712,0.303,0.654,3.845,-9.949,1.587
0.709,0.302,0.642,2.686,-7.019,2.258
0.697,0.305,0.624,3.174,-5.005,2.441
0.682,0.321,0.611,4.822,-4.578,2.075
0.668,0.313,0.607,7.385,-5.127,0.732
0.671,0.302,0.610,6.714,-5.981,-1.160
0.677,0.303,0.619,5.676,-6.836,-2.441
0.687,0.310,0.631,6.592,-7.385,-2.380
0.693,0.307,0.623,9.216,-7.324,-1.282
0.698,0.306,0.606,11.353,-6.897,-1.038
0.702,0.295,0.594,11.597,-7.141,-1.160
0.703,0.289,0.600,9.399,-8.057,-1.282
0.697,0.278,0.625,5.005,-8.484,-0.305
0.694,0.277,0.646,0.549,-8.240,1.282
0.696,0.285,0.652,-2.075,-7.446,2.991
0.688,0.306,0.651,-2.319,-7.263,4.150
0.694,0.366,0.661,-0.427,-7.202,4.822
0.682,0.371,0.664,5.737,-7.874,4.700
0.681,0.352,0.666,10.803,-8.301,2.075
0.678,0.322,0.685,10.620,-8.118,-1.770
0.687,0.281,0.692,10.681,-7.385,-3.723
0.680,0.251,0.682,10.803,-6.409,-3.479
0.673,0.250,0.663,8.972,-5.859,-1.648
0.677,0.272,0.657,3.235,-5.310,1.587
0.681,0.344,0.661,-0.061,-5.554,3.906
0.679,0.350,0.664,4.822,-6.226,4.211
0.681,0.339,0.671,10.254,-6.592,2.502
0.680,0.308,0.676,12.451,-6.714,0.000
0.673,0.288,0.674,13.672,-6.653,-1.465
0.662,0.287,0.664,13.000,-6.226,-1.160
0.663,0.302,0.660,12.268,-5.859,0.122
0.660,0.304,0.664,12.146,-6.042,0.793
0.662,0.302,0.677,11.780,-6.042,0.427
0.666,0.301,0.691,11.475,-5.554,-0.183
0.669,0.293,0.690,12.085,-4.395,-0.793
0.671,0.291,0.683,11.353,-3.540,-0.854
0.662,0.283,0.676,9.460,-2.625,-1.038
0.662,0.281,0.673,6.104,-2.136,-0.916

-0.751,1.406,1.060,-51.819,-343.079,104.126
-0.714,1.611,1.390,-69.397,-333.435,94.727
-0.649,1.793,1.701,-98.938,-313.171,81.482
-0.563,1.943,2.046,-124.512,-288.391,61.768
-0.480,2.023,2.412,-135.498,-260.132,33.630
-0.404,2.015,2.788,-132.324,-226.807,-1.221
-0.354,1.907,3.097,-120.544,-185.608,-38.574
-0.310,1.761,3.293,-105.713,-135.132,-72.388
-0.305,1.616,3.320,-85.815,-77.759,-97.046
-0.336,1.531,3.227,-60.730,-18.616,-113.159
-0.383,1.526,3.099,-41.870,36.316,-125.916
-0.429,1.564,2.956,-25.330,85.876,-137.817
-0.528,1.623,2.799,-10.559,129.456,-150.696
-0.680,1.669,2.569,3.296,170.166,-167.236
-0.773,1.659,2.250,14.709,206.604,-187.195
-0.853,1.580,1.945,15.625,234.070,-209.717
-0.934,1.449,1.752,0.366,250.488,-233.337
-0.997,1.258,1.611,-20.325,261.108,-255.737
-1.038,1.009,1.482,-35.095,269.287,-273.560
-1.027,0.700,1.350,-40.344,275.269,-284.363
-0.963,0.392,1.253,-39.795,278.992,-286.987
-0.903,0.134,1.181,-31.555,281.311,-281.067
-0.811,-0.060,1.077,-13.611,284.119,-267.212
-0.751,-0.153,0.942,11.047,288.086,-248.291
-0.736,-0.167,0.768,37.292,291.565,-226.196
-0.695,-0.158,0.519,63.904,292.847,-204.102
-0.656,-0.145,0.251,82.397,291.138,-185.303
-0.620,-0.141,-0.027,88.745,285.461,-171.692
-0.557,-0.167,-0.311,82.947,273.865,-162.292
-0.386,-0.259,-0.565,69.519,255.066,-154.297
-0.202,-0.407,-0.670,48.279,231.018,-145.935
-0.135,-0.542,-0.757,23.865,201.355,-133.484
0.006,-0.586,-0.714,-1.953,172.119,-116.028
0.145,-0.564,-0.684,-3.479,143.127,-96.741
0.219,-0.569,-0.658,12.756,113.464,-75.928
0.262,-0.466,-0.571,26.367,84.167,-55.298
0.311,-0.362,-0.459,34.058,59.509,-37.842
0.374,-0.245,-0.353,41.626,40.344,-23.560
0.432,-0.146,-0.242,45.593,26.367,-13.123
0.464,-0.054,-0.142,44.495,16.113,-5.981
0.502,0.028,-0.057,38.147,9.033,-0.488
0.563,0.095,0.029,28.748,5.310,4.089
0.617,0.158,0.091,21.118,4.272,6.775
0.638,0.200,0.126,18.555,4.700,7.385
0.689,0.234,0.132,17.334,5.676,7.080
0.710,0.245,0.113,18.433,5.615,6.409
0.724,0.247,0.078,20.325,3.845,6.592
0.721,0.240,0.041,20.996,0.122,8.240
0.732,0.267,0.039,20.752,-5.676,10.986
0.735,0.284,0.057,20.386,-14.282,13.123
0.742,0.310,0.118,17.273,-24.719,14.832
0.743,0.327,0.201,14.709,-33.691,16.968
0.761,0.338,0.283,14.099,-39.978,19.104
0.776,0.362,0.368,12.268,-43.823,20.691
0.777,0.387,0.444,13.550,-46.021,21.790
0.784,0.420,0.515,17.090,-46.570,22.339
0.792,0.444,0.551,22.339,-45.593,20.935
0.736,0.423,0.586,32.043,-44.434,17.883
0.734,0.439,0.635,27.649,-41.382,14.343
0.740,0.395,0.648,24.841,-35.889,10.315
0.741,0.367,0.663,21.057,-30.334,7.690
0.746,0.352,0.664,15.259,-24.902,7.324
0.737,0.339,0.652,13.123,-19.958,8.545
0.740,0.320,0.619,13.245,-15.747,10.193
0.733,0.337,0.612,7.935,-13.184,11.230
0.740,0.353,0.594,4.883,-11.292,11.475
0.744,0.385,0.571,7.202,-10.315,12.085
0.747,0.405,0.549,10.010,-10.376,12.085
0.742,0.418,0.535,13.245,-11.658,10.620
0.741,0.416,0.531,16.418,-13.428,7.935
0.748,0.395,0.531,21.423,-15.747,5.432
0.755,0.385,0.547,23.132,-17.761,3.723
0.751,0.375,0.575,21.729,-18.311,3.540
0.737,0.366,0.595,18.799,-16.968,4.272
0.732,0.367,0.602,13.367,-14.343,5.615
0.725,0.371,0.603,8.911,-11.780,6.775
0.712,0.361,0.603,6.714,-10.071,6.897
0.723,0.364,0.587,7.812,-9.460,6.470
0.694,0.376,0.602,9.399,-9.521,6.653
0.696,0.389,0.613,8.667,-9.521,5.859
0.706,0.362,0.614,7.751,-8.301,3.906
0.709,0.325,0.597,9.277,-6.653,2.197
0.709,0.317,0.580,9.705,-6.042,1.831
0.702,0.304,0.560,13.184,-6.165,3.113
0.697,0.307,0.539,15.198,-6.958,4.639
0.703,0.305,0.530,15.686,-8.789,5.737
0.709,0.311,0.527,16.357,-11.475,6.714
0.711,0.345,0.537,16.724,-13.916,8.240
0.710,0.366,0.567,15.930,-15.808,10.132
0.709,0.390,0.604,13.062,-16.357,11.169
0.709,0.402,0.631,10.315,-15.625,11.108
0.707,0.415,0.650,8.362,-14.160,9.888
0.703,0.419,0.672,7.324,-12.390,8.911
0.698,0.431,0.685,7.385,-10.620,7.324
0.693,0.414,0.680,8.911,-8.118,5.554
0.681,0.391,0.669,10.437,-5.981,3.601
0.679,0.372,0.651,11.108,-4.761,2.258
0.674,0.367,0.637,11.414,-4.333,2.380
0.670,0.365,0.624,14.099,-4.578,3.540
0.672,0.373,0.609,16.296,-5.188,4.944
0.678,0.369,0.593,19.043,-6.348,5.310
0.685,0.368,0.577,21.179,-8.118,5.432
0.685,0.363,0.570,21.301,-10.498,5.493
0.688,0.376,0.577,20.203,-12.451,5.676
0.688,0.383,0.597,19.287,-13.672,6.592
0.710,0.378,0.609,18.494,-13.733,8.057
0.696,0.395,0.641,17.456,-13.916,9.277
0.687,0.432,0.684,8.911,-12.695,9.094
0.686,0.430,0.703,5.737,-8.911,7.202
0.689,0.433,0.704,4.822,-5.310,4.761
0.683,0.419,0.693,5.249,-2.563,2.625
0.676,0.391,0.681,6.348,0.000,0.610
0.669,0.365,0.659,4.944,1.648,-1.404
0.664,0.350,0.630,3.723,2.808,-2.014
0.662,0.371,0.602,3.174,2.930,-0.732
0.654,0.397,0.584,6.042,1.953,1.221
0.652,0.404,0.575,9.521,-0.183,2.319
0.662,0.399,0.584,10.071,-2.319,1.404
0.665,0.375,0.599,9.705,-4.639,-0.488

-0.551,1.461,1.139,-12.207,-273.621,126.953
-0.537,1.805,1.444,-41.748,-266.602,114.807
-0.486,2.094,1.774,-75.562,-250.549,89.233
-0.439,2.298,2.083,-105.042,-227.417,50.476
-0.411,2.330,2.311,-112.793,-198.059,4.517
-0.378,2.180,2.407,-102.173,-163.757,-43.640
-0.354,1.888,2.427,-89.233,-127.441,-88.196
-0.381,1.588,2.434,-79.163,-91.675,-121.216
-0.402,1.360,2.486,-74.524,-56.641,-140.625
-0.423,1.211,2.527,-69.275,-21.729,-152.100
-0.437,1.088,2.623,-58.472,13.611,-159.607
-0.444,1.061,2.741,-45.044,50.232,-166.016
-0.520,1.055,2.761,-25.574,89.844,-172.424
-0.585,1.035,2.660,-6.348,132.263,-181.030
-0.642,1.015,2.493,3.174,174.072,-191.345
-0.716,0.989,2.301,6.531,212.402,-202.271
-0.780,0.948,2.091,6.165,244.690,-212.646
-0.850,0.901,1.901,-1.709,269.897,-223.145
-0.931,0.765,1.726,-13.550,290.100,-233.826
-0.981,0.614,1.559,-28.564,305.359,-243.774
-0.971,0.448,1.393,-38.269,315.491,-248.596
-0.919,0.286,1.214,-38.086,320.435,-247.070
-0.872,0.181,1.021,-31.494,321.106,-240.173
-0.806,0.054,0.786,-15.991,317.383,-229.431
-0.704,-0.061,0.544,-0.427,308.655,-217.041
-0.600,-0.170,0.316,10.437,295.288,-203.369
-0.478,-0.294,0.120,19.104,278.198,-188.477
-0.325,-0.390,0.016,21.484,258.423,-172.852
-0.215,-0.397,0.001,15.991,238.037,-155.151
-0.146,-0.361,0.035,12.634,219.116,-135.803
-0.093,-0.447,-0.101,19.104,203.247,-117.004
-0.016,-0.385,-0.099,18.188,190.002,-99.060
0.120,-0.290,-0.209,21.729,177.673,-84.167
0.147,-0.221,-0.302,34.790,160.706,-72.449
0.162,-0.170,-0.396,41.992,141.785,-62.683
0.202,-0.141,-0.471,45.776,122.620,-54.016
0.256,-0.147,-0.534,46.997,103.455,-46.936
0.327,-0.136,-0.564,44.617,82.886,-39.429
0.416,-0.105,-0.529,38.635,60.852,-29.724
0.463,-0.071,-0.403,30.518,40.344,-18.555
0.514,-0.001,-0.270,23.010,23.865,-7.263
0.599,0.077,-0.147,19.348,10.803,2.563
0.642,0.172,-0.035,20.813,-0.122,11.230
0.664,0.260,0.054,23.437,-7.080,17.090
0.677,0.347,0.112,28.381,-11.658,19.592
0.681,0.412,0.165,30.151,-14.709,18.860
0.681,0.457,0.225,30.151,-16.174,14.832
0.683,0.450,0.265,31.372,-15.869,8.423
0.684,0.401,0.282,33.691,-14.893,2.502
0.674,0.354,0.288,31.311,-14.587,-0.610
0.673,0.312,0.280,28.198,-14.648,0.549
0.668,0.284,0.277,23.010,-16.113,4.395
0.663,0.290,0.284,15.686,-18.738,9.033
0.669,0.326,0.293,10.254,-21.973,14.099
0.672,0.361,0.297,8.423,-25.330,18.372
0.701,0.406,0.335,7.019,-28.870,20.691
0.723,0.462,0.414,7.751,-32.837,19.958
0.733,0.502,0.482,13.916,-35.583,17.395
0.744,0.520,0.523,23.560,-35.156,14.587
0.742,0.543,0.561,26.733,-32.959,10.742
0.735,0.535,0.587,25.208,-29.785,6.592
0.735,0.504,0.608,20.996,-25.085,3.052
0.735,0.451,0.622,15.198,-20.325,0.610
0.727,0.409,0.629,6.592,-15.320,-0.183
0.730,0.402,0.625,0.732,-11.047,1.648
0.728,0.399,0.609,0.366,-8.179,4.761
0.720,0.416,0.585,2.625,-7.019,7.141
0.719,0.435,0.567,3.235,-6.836,7.446
0.724,0.439,0.564,3.052,-7.385,6.165
0.742,0.446,0.581,1.892,-8.240,4.028
0.752,0.444,0.592,3.662,-8.301,1.892
0.753,0.452,0.587,7.385,-7.446,0.244
0.765,0.445,0.568,11.475,-5.920,-1.099
0.747,0.427,0.533,16.846,-4.822,-2.319
0.748,0.395,0.509,18.005,-4.944,-3.113
0.739,0.368,0.506,15.564,-6.165,-2.991
0.746,0.361,0.523,10.803,-7.996,-1.465
0.739,0.377,0.543,7.385,-9.338,1.953
0.727,0.414,0.563,5.188,-9.583,5.310
0.717,0.437,0.576,5.615,-8.728,7.385
0.723,0.445,0.580,5.005,-7.935,7.263
0.722,0.443,0.584,3.784,-7.263,5.615
0.719,0.431,0.593,3.174,-7.019,3.662
0.714,0.423,0.599,3.479,-6.348,2.075
0.706,0.420,0.596,4.517,-5.737,1.099
0.704,0.420,0.593,7.080,-4.944,0.854
0.705,0.424,0.594,9.460,-4.211,0.732
0.699,0.415,0.584,13.428,-3.357,0.244
0.697,0.416,0.566,16.052,-2.441,-0.488
0.700,0.400,0.547,17.273,-1.953,-0.977
0.703,0.388,0.537,14.648,-1.892,-0.977
0.705,0.384,0.539,9.521,-1.953,-0.366
0.705,0.388,0.551,4.761,-1.587,0.854
0.703,0.398,0.552,3.784,-0.977,2.136
0.700,0.401,0.539,6.409,-0.488,3.235
0.698,0.415,0.529,8.423,-0.793,3.479
0.693,0.433,0.534,8.667,-1.770,3.174
0.684,0.443,0.547,8.240,-2.869,2.563
0.681,0.436,0.560,7.324,-3.357,1.282
0.686,0.412,0.569,6.165,-2.991,-0.122
0.688,0.404,0.574,5.981,-2.319,-1.038
0.683,0.404,0.570,9.155,-1.526,-0.610
0.675,0.389,0.550,14.160,-0.305,1.099
0.687,0.395,0.539,12.146,0.610,1.953
0.691,0.402,0.545,7.385,0.244,1.953
0.688,0.407,0.544,5.798,-0.427,1.892
0.693,0.414,0.535,5.554,-0.916,2.258
0.695,0.448,0.531,4.578,-1.343,2.625
0.698,0.478,0.541,6.531,-2.075,2.869
0.699,0.472,0.550,10.559,-2.502,2.747
0.703,0.462,0.562,10.132,-2.258,0.610
0.702,0.447,0.570,9.460,-2.014,-1.770
0.703,0.429,0.571,9.888,-1.892,-2.930
0.692,0.411,0.570,10.193,-1.526,-3.113
0.697,0.400,0.562,9.766,-1.038,-2.930
0.688,0.398,0.548,8.423,-0.488,-2.380
0.689,0.380,0.536,8.545,-0.183,-1.892
0.688,0.366,0.521,9.094,-0.305,-1.038
0.682,0.360,0.514,8.240,-1.099,-0.427

-0.970,1.313,0.513,-45.837,-343.567,97.900
-0.977,1.383,0.659,-80.811,-353.943,86.365
-0.992,1.453,0.918,-103.516,-360.291,79.102
-0.934,1.524,1.334,-126.770,-360.718,71.777
-0.771,1.616,1.922,-145.691,-350.525,62.561
-0.642,1.741,2.563,-149.231,-325.867,51.147
-0.488,1.811,3.187,-131.897,-284.485,33.936
-0.592,3.557,4.000,-98.999,-214.661,5.310
0.395,1.541,3.182,-33.386,-57.129,-51.208
-0.365,1.577,3.379,-43.396,-28.564,-75.500
-0.444,1.797,3.746,-45.349,7.019,-89.417
-0.642,1.954,3.380,-9.338,95.215,-108.948
-0.730,1.785,2.616,27.954,183.411,-142.761
-0.827,1.675,2.084,33.325,234.802,-180.664
-0.925,1.506,1.781,28.564,256.104,-214.172
-1.024,1.238,1.613,30.396,267.151,-241.882
-1.117,0.926,1.510,21.851,278.259,-261.780
-1.147,0.607,1.394,5.981,291.199,-273.254
-1.088,0.282,1.294,-6.531,302.673,-274.841
-0.966,0.057,1.237,-15.991,309.692,-267.639
-0.844,-0.020,1.197,-15.564,313.110,-252.319
-0.786,0.031,1.057,5.371,316.772,-229.370
-0.732,0.095,0.830,34.363,319.763,-203.369
-0.655,0.113,0.557,46.631,316.589,-182.373
-0.587,0.129,0.312,33.691,304.260,-170.654
-0.497,0.105,0.133,11.719,285.217,-164.917
-0.414,0.033,-0.001,-0.549,262.451,-159.607
-0.298,-0.094,-0.113,-4.395,238.403,-152.710
-0.144,-0.238,-0.207,-5.188,212.402,-144.104
-0.019,-0.325,-0.231,-2.869,185.425,-132.202
0.068,-0.373,-0.237,4.822,159.973,-116.821
0.135,-0.400,-0.256,19.348,137.573,-99.060
0.198,-0.357,-0.237,33.386,117.737,-80.322
0.265,-0.244,-0.190,44.983,99.976,-63.843
0.288,-0.128,-0.171,58.472,84.167,-51.880
0.301,-0.058,-0.154,67.383,71.289,-44.067
0.317,-0.012,-0.130,60.974,61.462,-38.574
0.375,0.002,-0.087,40.588,54.443,-32.593
0.414,-0.009,-0.019,17.761,49.438,-24.719
0.442,0.022,0.067,-3.113,45.898,-15.503
0.507,0.060,0.118,-11.780,43.701,-5.981
0.546,0.147,0.174,-6.531,41.199,1.526
0.560,0.255,0.199,4.089,38.147,5.981
0.584,0.330,0.188,18.494,35.400,6.836
0.598,0.365,0.159,27.222,33.630,4.761
0.600,0.400,0.108,25.085,31.738,0.244
0.648,0.390,0.062,21.851,28.564,-3.357
0.661,0.361,0.043,21.606,22.217,-5.127
0.667,0.339,0.052,19.775,12.939,-4.639
0.659,0.313,0.085,18.311,2.502,-1.953
0.678,0.308,0.156,15.259,-6.775,3.174
0.692,0.341,0.260,8.667,-14.709,9.033
0.714,0.405,0.371,5.920,-20.508,14.771
0.722,0.475,0.447,8.972,-22.705,18.616
0.714,0.543,0.492,12.512,-22.278,19.348
0.726,0.578,0.496,16.296,-20.264,16.541
0.715,0.581,0.508,18.799,-18.799,11.658
0.695,0.566,0.517,15.381,-17.029,5.432
0.697,0.501,0.498,14.954,-14.221,-0.366
0.695,0.428,0.467,16.052,-12.268,-2.991
0.695,0.380,0.435,16.052,-12.512,-2.930
0.677,0.349,0.411,17.090,-15.076,-0.732
0.698,0.364,0.421,15.991,-18.555,3.662
0.698,0.389,0.432,16.235,-22.156,8.301
0.703,0.445,0.494,16.418,-26.245,11.841
0.709,0.515,0.556,17.761,-28.381,13.855
0.696,0.560,0.589,22.156,-27.710,13.306
0.698,0.585,0.600,24.170,-24.780,10.254
0.693,0.578,0.611,21.240,-21.667,5.310
0.695,0.535,0.631,15.198,-18.433,0.183
0.694,0.474,0.646,8.118,-14.709,-3.113
0.690,0.421,0.660,1.648,-10.437,-4.517
0.685,0.377,0.653,-0.366,-6.348,-3.967
0.687,0.363,0.627,1.221,-3.601,-2.136
0.682,0.394,0.598,5.371,-2.136,0.610
0.676,0.417,0.559,11.780,-1.465,3.052
0.674,0.440,0.521,14.038,-1.160,3.845
0.677,0.449,0.500,11.841,-2.014,2.563
0.684,0.445,0.491,8.484,-3.723,0.916
0.696,0.433,0.491,7.385,-5.066,0.122
0.693,0.433,0.504,6.287,-6.348,0.061
0.687,0.439,0.520,5.798,-7.080,0.610
0.682,0.451,0.544,4.456,-7.507,1.099
0.676,0.468,0.582,2.197,-7.751,1.038
0.680,0.468,0.618,3.113,-7.446,0.488
0.675,0.459,0.642,5.371,-6.653,-0.671
0.664,0.447,0.651,6.836,-5.188,-2.014
0.661,0.424,0.634,9.277,-3.174,-2.808
0.655,0.408,0.602,9.644,-1.099,-2.991
0.656,0.396,0.572,7.935,0.061,-2.930
0.652,0.396,0.552,5.676,0.061,-2.747
0.647,0.402,0.542,4.822,-0.183,-2.014
0.648,0.407,0.528,5.920,-0.366,-0.977
0.655,0.384,0.507,8.972,-0.916,-0.183
0.672,0.376,0.493,10.315,-1.709,0.000
0.673,0.361,0.486,10.864,-3.357,0.122
0.677,0.348,0.478,11.292,-5.310,1.038
0.682,0.365,0.478,11.047,-7.874,2.869
0.682,0.431,0.503,10.498,-10.681,5.554
0.663,0.476,0.541,14.038,-12.634,7.812
0.656,0.481,0.573,16.724,-13.550,7.385
0.656,0.481,0.606,14.221,-13.489,4.700
0.663,0.456,0.637,11.902,-12.695,2.136
0.667,0.437,0.663,9.583,-11.719,0.916
0.663,0.417,0.686,7.324,-9.827,0.916
0.658,0.409,0.690,5.371,-6.897,1.465
0.667,0.427,0.676,4.517,-4.150,2.319
0.662,0.432,0.655,7.507,-1.770,3.052
0.660,0.436,0.619,10.071,0.427,2.991
0.661,0.434,0.589,9.949,1.343,1.953
0.667,0.429,0.566,9.338,1.160,1.038
0.661,0.423,0.552,8.728,0.244,1.038
0.658,0.422,0.543,8.484,-1.221,1.953
0.665,0.432,0.544,7.751,-3.113,2.869
0.669,0.442,0.554,8.484,-4.822,3.662
0.670,0.449,0.563,9.521,-6.104,3.845
0.676,0.459,0.577,8.667,-7.263,3.601
0.676,0.462,0.600,7.690,-7.690,3.235
0.681,0.473,0.634,5.798,-7.446,3.235

-0.521,1.152,1.165,-2.075,-244.812,88.318
-0.492,1.235,1.056,-22.888,-231.201,77.820
-0.489,1.325,1.112,-54.382,-227.295,67.322
-0.455,1.448,1.370,-86.548,-229.492,55.359
-0.381,1.536,1.788,-113.464,-225.952,39.124
-0.344,1.600,2.213,-132.507,-210.022,16.418
-0.279,1.555,2.466,-134.766,-180.908,-8.972
-0.285,1.419,2.494,-125.000,-144.714,-33.752
-0.307,1.225,2.386,-115.295,-107.422,-54.382
-0.342,1.058,2.215,-102.356,-73.914,-66.223
-0.390,0.955,2.037,-84.656,-49.683,-69.214
-0.461,0.880,1.899,-64.453,-33.142,-67.810
-0.480,0.883,1.789,-45.532,-21.301,-65.186
-0.469,0.953,1.783,-31.738,-11.536,-62.622
-0.439,1.092,1.911,-29.907,-3.662,-62.805
-0.415,1.285,2.136,-38.269,9.766,-69.946
-0.380,1.410,2.340,-44.800,32.837,-85.632
-0.340,1.516,2.538,-50.293,62.622,-108.093
-0.367,1.565,2.698,-50.110,97.168,-134.521
-0.449,1.531,2.772,-41.382,137.634,-163.940
-0.579,1.477,2.727,-27.527,184.631,-194.641
-0.738,1.364,2.506,-3.174,234.375,-222.046
-0.946,1.149,2.076,25.330,282.349,-245.117
-1.205,0.861,1.582,42.114,323.975,-262.817
-1.369,0.585,1.074,33.081,354.919,-273.315
-1.450,0.288,0.496,19.775,373.413,-275.879
-1.322,-0.026,-0.026,11.169,375.793,-271.545
-1.077,-0.280,-0.416,4.211,359.802,-261.047
-0.844,-0.522,-0.666,-1.648,327.637,-242.187
-0.646,-0.702,-0.817,-2.502,285.095,-215.393
-0.447,-0.797,-0.860,0.183,239.624,-182.922
-0.272,-0.854,-0.860,7.385,195.251,-147.949
-0.146,-0.836,-0.800,12.634,154.480,-114.502
0.003,-0.743,-0.695,14.587,119.507,-84.473
0.104,-0.610,-0.569,18.555,89.355,-58.167
0.184,-0.464,-0.420,25.024,63.538,-37.476
0.250,-0.322,-0.286,29.053,42.603,-22.278
0.284,-0.234,-0.149,35.583,27.832,-11.658
0.348,-0.157,-0.036,38.818,17.334,-4.028
0.382,-0.080,0.070,37.415,10.437,2.441
0.437,0.023,0.169,31.555,6.470,9.766
0.493,0.113,0.223,27.344,5.798,16.724
0.531,0.197,0.254,23.926,7.507,22.339
0.572,0.318,0.253,22.949,9.338,26.062
0.575,0.418,0.254,21.118,10.193,27.222
0.590,0.484,0.244,19.409,10.193,24.536
0.605,0.526,0.241,14.771,7.996,19.775
0.604,0.537,0.246,12.756,4.089,15.625
0.597,0.535,0.268,10.437,-0.549,12.329
0.602,0.514,0.280,12.268,-5.188,10.315
0.597,0.494,0.304,16.663,-10.681,9.460
0.593,0.470,0.341,21.179,-17.151,9.827
0.607,0.471,0.404,22.949,-23.560,11.230
0.605,0.482,0.509,20.142,-28.809,13.062
0.635,0.529,0.622,15.320,-31.128,14.648
0.636,0.540,0.722,15.869,-29.724,16.296
0.637,0.594,0.791,15.930,-25.269,16.663
0.647,0.640,0.810,14.709,-17.517,14.771
0.650,0.653,0.757,19.409,-8.545,10.986
0.647,0.660,0.688,20.813,-2.625,6.531
0.638,0.626,0.636,17.822,0.549,1.831
0.624,0.597,0.618,10.254,1.831,-2.258
0.613,0.572,0.612,3.784,2.136,-4.456
0.599,0.529,0.605,2.563,1.587,-5.554
0.592,0.494,0.604,3.113,0.305,-5.798
0.581,0.475,0.618,2.991,-2.136,-5.249
0.580,0.469,0.653,4.089,-4.578,-4.028
0.582,0.477,0.704,5.432,-6.042,-3.296
0.576,0.488,0.748,6.714,-6.042,-2.808
0.587,0.502,0.772,9.338,-4.211,-2.075
0.598,0.509,0.780,12.756,-0.610,-1.831
0.601,0.505,0.767,14.221,3.723,-2.563
0.610,0.513,0.737,13.184,8.057,-3.479
0.612,0.526,0.693,10.986,11.353,-3.845
0.635,0.499,0.658,7.874,13.794,-4.333
0.639,0.499,0.631,4.517,15.076,-5.249
0.636,0.480,0.608,1.282,15.686,-5.859
0.630,0.481,0.559,1.709,15.991,-6.531
0.626,0.488,0.516,5.432,14.954,-5.981
0.608,0.460,0.484,10.681,11.536,-5.249
0.601,0.441,0.479,11.780,7.141,-5.066
0.602,0.415,0.491,11.169,2.319,-4.700
0.594,0.406,0.516,12.329,-2.197,-3.235
0.591,0.413,0.558,14.282,-5.798,-0.732
0.579,0.424,0.599,17.151,-8.362,2.380
0.568,0.426,0.629,19.775,-9.827,4.028
0.573,0.417,0.647,21.423,-10.071,4.456
0.586,0.404,0.656,22.095,-9.644,4.761
0.578,0.423,0.645,21.606,-8.667,5.737
0.569,0.492,0.643,18.860,-6.958,8.118
0.577,0.505,0.646,18.799,-4.944,10.437
0.568,0.537,0.658,10.559,-2.808,9.949
0.587,0.532,0.666,2.930,-0.610,6.714
0.608,0.497,0.660,3.235,1.038,3.052
0.605,0.456,0.648,6.165,1.282,0.366
0.597,0.432,0.621,8.118,1.831,0.000
0.595,0.443,0.585,6.836,2.441,2.136
0.595,0.479,0.566,0.244,2.319,5.371
0.591,0.549,0.566,-6.165,0.977,7.324
0.612,0.522,0.588,-2.930,-0.488,7.202
0.595,0.535,0.615,1.221,-1.709,5.554
0.599,0.526,0.618,3.052,-1.953,3.052
0.590,0.505,0.612,8.362,-1.892,1.160
0.585,0.498,0.608,11.414,-2.686,0.916
0.581,0.492,0.616,12.817,-3.845,1.526
0.581,0.482,0.638,15.015,-4.517,2.014
0.596,0.478,0.656,14.954,-4.700,2.136
0.600,0.479,0.667,14.526,-4.395,1.770
0.599,0.492,0.659,16.174,-3.113,2.014
0.603,0.505,0.640,16.357,-1.465,2.380
0.601,0.514,0.632,11.353,0.061,1.892
0.596,0.512,0.635,5.798,1.526,0.793
0.588,0.499,0.641,2.747,2.319,-0.793
0.587,0.477,0.636,2.808,2.869,-2.258
0.586,0.452,0.620,5.798,2.747,-2.808
0.579,0.443,0.602,8.362,1.831,-2.502
0.567,0.461,0.590,8.972,1.038,-1.160
0.576,0.471,0.590,9.583,0.244,0.488
0.574,0.473,0.595,9.827,-0.549,0.793

-0.461,1.579,0.855,-22.156,-271.973,60.791
-0.456,1.655,1.009,-72.693,-272.583,36.316
-0.454,1.671,1.245,-122.803,-268.188,18.311
-0.385,1.639,1.601,-158.142,-259.949,3.540
-0.313,1.620,2.114,-175.049,-248.718,-12.268
-0.240,1.564,2.599,-164.795,-227.051,-29.602
-0.200,1.464,2.929,-133.545,-189.697,-46.936
-0.170,1.332,3.023,-96.924,-139.465,-63.538
-0.151,1.167,2.872,-61.401,-83.496,-76.721
-0.195,1.046,2.608,-32.898,-31.799,-84.106
-0.247,1.035,2.355,-17.944,8.667,-87.341
-0.289,1.127,2.234,-13.489,40.161,-89.600
-0.352,1.273,2.224,-15.503,66.406,-96.191
-0.431,1.421,2.280,-23.010,92.834,-110.413
-0.496,1.452,2.328,-27.100,120.239,-131.042
-0.528,1.460,2.414,-32.227,147.949,-155.334
-0.617,1.408,2.495,-28.870,176.208,-179.993
-0.713,1.327,2.507,-21.851,208.740,-201.721
-0.838,1.216,2.367,-5.920,244.202,-219.238
-0.916,1.086,2.066,10.742,281.372,-230.652
-1.010,0.961,1.710,21.545,312.805,-237.915
-1.077,0.861,1.324,23.743,334.656,-242.371
-1.132,0.678,0.962,20.630,348.267,-245.422
-1.098,0.485,0.596,13.489,353.088,-246.277
-1.013,0.271,0.236,2.686,348.083,-244.263
-0.899,0.047,-0.096,-4.639,334.290,-239.502
-0.753,-0.199,-0.400,0.549,311.584,-231.934
-0.528,-0.484,-0.660,12.939,279.968,-218.933
-0.313,-0.693,-0.811,22.339,241.943,-197.327
-0.165,-0.804,-0.860,31.311,200.195,-167.053
-0.021,-0.805,-0.846,43.030,158.142,-131.653
0.083,-0.726,-0.778,54.077,118.408,-95.154
0.180,-0.574,-0.655,58.533,83.496,-62.378
0.272,-0.380,-0.497,54.993,55.420,-37.964
0.335,-0.214,-0.346,51.880,35.034,-20.447
0.364,-0.037,-0.155,42.725,21.790,-7.507
0.414,0.108,-0.012,35.156,14.771,-0.977
0.424,0.187,0.103,31.555,12.390,1.709
0.444,0.236,0.218,24.109,14.160,-0.549
0.490,0.257,0.276,17.761,18.311,-5.127
0.530,0.238,0.301,13.672,24.292,-11.475
0.551,0.215,0.274,13.428,30.518,-17.273
0.567,0.157,0.198,15.808,35.034,-20.203
0.557,0.105,0.109,18.433,36.194,-20.020
0.565,0.061,0.012,20.325,34.790,-17.639
0.578,0.031,-0.057,23.071,28.748,-12.329
0.591,0.027,-0.107,26.855,18.799,-5.859
0.599,0.042,-0.123,29.358,5.554,1.404
0.594,0.100,-0.050,27.588,-7.751,9.705
0.600,0.197,0.073,26.855,-21.057,18.677
0.621,0.299,0.235,26.733,-32.288,25.513
0.632,0.385,0.395,23.621,-38.879,29.297
0.637,0.448,0.531,18.677,-40.222,29.358
0.685,0.469,0.606,15.930,-37.598,28.503
0.663,0.506,0.675,13.428,-32.349,26.611
0.673,0.531,0.716,6.531,-25.085,22.949
0.693,0.555,0.700,3.357,-16.113,17.822
0.702,0.524,0.618,8.606,-8.545,12.207
0.682,0.480,0.559,12.573,-5.432,7.202
0.676,0.439,0.507,12.512,-4.822,4.211
0.679,0.398,0.462,13.489,-5.554,3.601
0.684,0.366,0.447,13.428,-8.362,4.944
0.685,0.381,0.467,13.367,-12.756,7.263
0.679,0.388,0.499,17.395,-17.151,9.888
0.685,0.418,0.556,17.944,-19.775,12.390
0.702,0.459,0.616,16.113,-19.775,13.916
0.697,0.489,0.656,14.587,-17.883,14.160
0.704,0.514,0.681,12.146,-13.916,12.817
0.703,0.521,0.681,9.766,-8.728,9.949
0.699,0.505,0.660,7.935,-4.395,6.531
0.704,0.481,0.632,6.897,-0.305,3.235
0.701,0.466,0.601,6.775,2.258,1.404
0.697,0.448,0.573,7.568,3.967,0.610
0.691,0.446,0.545,9.033,4.395,0.366
0.676,0.445,0.515,11.353,4.211,0.671
0.667,0.445,0.479,13.916,3.174,1.221
0.661,0.429,0.448,15.564,0.732,2.197
0.659,0.419,0.446,14.465,-2.686,2.747
0.653,0.395,0.478,12.390,-6.104,3.052
0.657,0.391,0.520,12.207,-9.155,4.028
0.649,0.414,0.563,12.451,-10.498,5.798
0.672,0.414,0.570,15.930,-10.742,7.690
0.668,0.410,0.574,21.423,-10.925,9.521
0.685,0.441,0.579,21.057,-10.864,9.949
0.685,0.478,0.571,20.691,-10.010,9.766
0.683,0.510,0.563,17.822,-8.057,9.033
0.691,0.524,0.556,12.146,-6.653,7.874
0.672,0.490,0.568,2.930,-5.920,5.493
0.688,0.490,0.595,-5.249,-4.822,2.991
0.670,0.481,0.614,-3.906,-3.906,1.465
0.662,0.483,0.614,1.770,-3.113,1.160
0.630,0.460,0.601,11.230,-2.563,1.709
0.619,0.443,0.592,12.817,-1.526,1.465
0.623,0.424,0.577,10.010,-1.038,0.549
0.633,0.401,0.567,8.667,-2.136,0.610
0.641,0.397,0.572,7.080,-3.357,1.526
0.648,0.403,0.570,6.165,-3.845,2.991
0.663,0.433,0.556,5.798,-3.845,4.639
0.675,0.467,0.549,8.728,-3.723,6.042
0.674,0.472,0.534,14.648,-4.150,6.104
0.672,0.469,0.531,16.296,-5.188,4.456
0.681,0.470,0.547,14.587,-6.409,2.441
0.668,0.453,0.565,14.893,-7.568,1.770
0.657,0.445,0.579,13.428,-8.179,2.014
0.653,0.467,0.597,9.460,-7.690,3.052
0.648,0.484,0.607,8.362,-6.775,4.517
0.646,0.477,0.614,9.705,-6.104,4.944
0.649,0.470,0.625,8.118,-5.615,3.906
0.653,0.465,0.631,6.958,-5.066,2.686
0.656,0.458,0.633,7.690,-4.517,2.014
0.649,0.451,0.630,7.263,-3.845,1.526
0.645,0.461,0.625,4.944,-3.113,0.916
0.647,0.499,0.620,3.845,-2.136,1.160
0.646,0.489,0.606,7.324,-1.099,1.343
0.647,0.474,0.590,8.667,-0.244,0.183
0.653,0.453,0.581,7.019,-0.366,-1.892
0.649,0.420,0.575,6.836,-1.038,-2.991
0.645,0.403,0.579,4.639,-1.831,-2.441
0.644,0.396,0.590,2.502,-2.441,-1.160

-0.510,1.153,0.940,5.249,-256.287,106.812
-0.543,1.308,0.749,-13.000,-248.047,100.037
-0.597,1.522,0.596,-45.776,-249.756,92.896
-0.658,1.694,0.591,-81.787,-261.414,79.041
-0.662,1.809,0.847,-114.014,-276.123,56.274
-0.642,1.776,1.360,-130.981,-285.339,29.480
-0.524,1.687,1.961,-134.949,-280.518,5.859
-0.385,1.615,2.574,-124.878,-257.690,-12.146
-0.298,1.537,3.132,-105.408,-217.529,-27.283
-0.213,1.517,3.570,-82.031,-160.217,-40.833
-0.202,1.545,3.804,-55.908,-88.928,-55.176
-0.235,1.552,3.746,-24.414,-7.874,-72.815
-0.335,1.553,3.413,7.080,74.158,-94.177
-0.494,1.603,2.906,35.889,146.729,-116.455
-0.635,1.633,2.377,57.617,203.674,-140.991
-0.799,1.656,1.937,67.688,243.469,-169.250
-0.938,1.596,1.571,69.336,268.982,-198.059
-1.063,1.430,1.276,55.176,285.767,-226.135
-1.135,1.195,1.026,30.273,295.044,-251.099
-1.144,0.891,0.865,1.404,297.180,-268.921
-1.105,0.622,0.719,-25.879,292.542,-277.710
-0.978,0.380,0.647,-46.204,282.898,-276.611
-0.803,0.200,0.618,-50.476,270.386,-266.602
-0.624,0.078,0.615,-43.579,255.676,-250.488
-0.475,0.021,0.601,-31.982,241.638,-230.408
-0.396,-0.002,0.550,-15.442,230.530,-208.740
-0.312,-0.014,0.470,0.610,222.168,-188.599
-0.222,-0.036,0.326,12.024,214.050,-171.753
-0.161,-0.023,0.221,15.381,204.956,-157.959
-0.109,-0.011,0.105,13.672,194.946,-146.362
-0.040,-0.089,-0.004,11.963,183.960,-136.719
0.030,-0.177,-0.067,5.188,171.631,-129.150
0.091,-0.243,-0.092,-1.770,157.166,-120.789
0.122,-0.307,-0.126,-4.333,141.968,-109.314
0.200,-0.355,-0.158,-1.709,128.052,-96.375
0.282,-0.361,-0.214,9.338,113.708,-80.139
0.342,-0.327,-0.272,24.597,97.168,-59.998
0.382,-0.210,-0.303,38.452,78.552,-39.612
0.418,-0.068,-0.307,49.438,59.143,-23.193
0.447,0.050,-0.285,55.969,41.443,-13.000
0.506,0.148,-0.235,50.537,27.161,-8.423
0.534,0.184,-0.131,35.706,16.235,-6.836
0.560,0.183,-0.028,16.602,9.216,-6.226
0.593,0.202,0.086,-2.136,6.409,-4.272
0.622,0.255,0.161,-9.827,6.714,-0.671
0.635,0.273,0.195,-3.784,6.958,4.272
0.640,0.311,0.219,4.517,5.676,7.446
0.652,0.363,0.261,10.681,2.258,8.667
0.644,0.392,0.303,17.639,-2.014,9.460
0.642,0.425,0.339,21.423,-4.883,9.827
0.643,0.462,0.363,22.034,-6.226,9.888
0.669,0.482,0.377,23.193,-7.202,9.399
0.669,0.479,0.376,28.198,-8.667,9.399
0.658,0.516,0.388,23.315,-9.338,9.155
0.687,0.518,0.367,20.630,-8.972,8.911
0.684,0.507,0.357,16.968,-9.399,8.423
0.714,0.525,0.375,7.202,-10.498,8.179
0.719,0.534,0.419,2.625,-12.268,7.935
0.727,0.521,0.465,4.272,-13.611,6.775
0.728,0.510,0.508,8.423,-13.977,4.761
0.718,0.505,0.533,12.024,-12.085,2.686
0.716,0.502,0.530,16.174,-8.972,1.587
0.704,0.502,0.516,18.860,-6.470,0.916
0.687,0.510,0.502,20.813,-5.249,-0.061
0.663,0.496,0.490,22.827,-4.700,-0.977
0.680,0.475,0.483,24.048,-5.066,-1.465
0.650,0.445,0.492,23.071,-5.798,-0.854
0.681,0.450,0.493,19.348,-6.409,0.732
0.680,0.445,0.495,20.020,-7.812,3.174
0.686,0.479,0.526,14.648,-9.583,5.432
0.696,0.502,0.552,10.254,-9.644,6.714
0.705,0.528,0.576,6.775,-7.935,6.531
0.701,0.558,0.594,4.944,-5.554,5.066
0.698,0.566,0.590,8.118,-3.296,2.991
0.684,0.563,0.570,11.902,-0.793,0.122
0.675,0.545,0.544,14.771,1.160,-2.747
0.675,0.504,0.521,16.602,1.831,-5.066
0.671,0.463,0.508,16.663,1.160,-6.531
0.672,0.419,0.512,17.029,0.610,-6.653
0.656,0.401,0.525,16.296,0.305,-5.493
0.656,0.383,0.523,14.526,1.648,-3.662
0.658,0.387,0.512,12.939,2.747,-1.770
0.643,0.400,0.492,12.268,3.479,0.488
0.653,0.414,0.467,10.864,3.662,1.953
0.657,0.417,0.449,9.766,2.930,2.686
0.659,0.419,0.443,7.935,1.099,2.563
0.670,0.428,0.455,7.202,-1.099,2.563
0.681,0.441,0.474,9.277,-3.052,3.235
0.672,0.457,0.485,11.475,-4.395,3.723
0.686,0.479,0.477,14.099,-4.517,3.479
0.671,0.483,0.479,17.639,-4.700,3.479
0.685,0.474,0.487,15.320,-5.005,3.418
0.679,0.456,0.502,12.024,-5.371,3.662
0.672,0.473,0.525,7.141,-5.371,3.967
0.670,0.484,0.523,6.470,-4.517,4.211
0.673,0.486,0.509,8.606,-3.906,4.883
0.672,0.493,0.505,8.484,-3.967,4.639
0.674,0.484,0.517,7.690,-4.700,3.418
0.674,0.475,0.520,8.240,-5.310,2.563
0.682,0.470,0.534,9.338,-5.737,2.625
0.673,0.476,0.541,12.207,-5.737,2.869
0.668,0.492,0.540,15.320,-5.432,2.808
0.662,0.492,0.530,19.592,-5.249,2.441
0.665,0.479,0.525,20.569,-5.676,1.465
0.671,0.470,0.540,16.968,-6.348,0.427
0.672,0.473,0.566,12.817,-6.348,0.549
0.682,0.474,0.585,8.850,-5.249,1.465
0.685,0.488,0.597,5.981,-3.540,2.563
0.685,0.499,0.595,6.836,-1.343,2.930
0.686,0.500,0.577,9.766,0.854,2.563
0.687,0.500,0.548,12.085,2.258,1.282
0.676,0.500,0.518,13.428,2.625,-0.061
0.667,0.468,0.497,12.634,1.892,-1.770
0.663,0.445,0.491,9.583,0.122,-2.808
0.663,0.432,0.495,7.812,-2.014,-2.563
0.662,0.423,0.510,8.972,-4.028,-1.160
0.661,0.436,0.535,9.766,-5.615,0.549
0.665,0.454,0.559,9.155,-6.409,2.136
0.672,0.462,0.585,8.118,-6.226,2.686

-0.454,1.364,1.418,-46.387,-293.945,137.756
-0.278,1.654,2.188,-52.734,-286.011,132.935
-0.136,2.057,2.858,-49.683,-251.526,121.948
-0.020,2.476,3.210,-42.725,-189.148,96.802
0.033,2.759,3.195,-38.452,-111.328,51.270
0.010,2.794,2.872,-36.804,-35.400,-10.193
-0.167,2.585,2.360,-35.156,25.879,-76.111
-0.337,2.274,1.831,-45.471,69.275,-133.850
-0.504,1.876,1.292,-70.984,97.229,-179.871
-0.582,1.462,0.816,-98.877,109.070,-211.121
-0.586,1.051,0.492,-123.291,102.295,-227.112
-0.509,0.677,0.358,-133.240,80.627,-229.126
-0.394,0.447,0.418,-125.366,49.744,-216.125
-0.284,0.352,0.592,-100.708,18.677,-189.575
-0.191,0.448,0.850,-74.341,-3.723,-156.128
-0.059,0.636,1.083,-56.091,-14.221,-125.122
0.019,0.926,1.295,-43.945,-13.550,-103.455
0.061,1.217,1.526,-35.706,-4.028,-96.313
0.077,1.450,1.748,-28.198,11.780,-103.455
0.065,1.617,1.914,-23.071,36.865,-122.375
0.006,1.668,1.988,-17.212,69.641,-150.696
-0.106,1.604,1.955,-10.376,106.079,-183.655
-0.258,1.409,1.740,-5.371,143.738,-214.233
-0.399,1.094,1.399,-2.869,178.711,-238.525
-0.586,0.733,1.033,-10.071,205.811,-254.211
-0.664,0.395,0.623,-25.635,222.961,-262.146
-0.605,-0.001,0.207,-26.672,228.394,-262.207
-0.472,-0.325,-0.120,-19.775,218.872,-252.075
-0.344,-0.558,-0.331,-6.836,195.862,-229.431
-0.208,-0.628,-0.424,8.728,165.100,-196.411
-0.084,-0.677,-0.415,29.785,132.874,-157.410
0.034,-0.572,-0.298,42.419,103.333,-120.544
0.123,-0.408,-0.161,56.152,79.468,-89.172
0.170,-0.266,-0.075,69.885,64.880,-66.895
0.245,-0.104,-0.035,72.144,58.472,-52.917
0.249,-0.023,-0.040,69.702,54.871,-44.250
0.264,0.053,-0.024,53.406,52.124,-39.429
0.296,0.130,0.004,33.997,49.744,-38.269
0.320,0.093,0.005,27.405,47.180,-38.147
0.333,0.049,0.014,23.315,42.969,-36.682
0.355,-0.001,0.024,19.714,38.025,-32.349
0.388,-0.029,0.036,19.897,32.104,-24.292
0.436,-0.009,0.057,20.691,26.184,-13.916
0.475,0.041,0.080,25.574,19.104,-3.601
0.517,0.120,0.101,33.203,13.733,4.578
0.566,0.206,0.103,43.274,9.033,11.230
0.591,0.271,0.073,50.232,5.249,16.418
0.597,0.357,0.062,48.035,2.075,20.386
0.605,0.449,0.065,36.377,-0.732,23.560
0.629,0.529,0.108,22.766,-3.967,25.208
0.629,0.583,0.179,16.541,-7.874,24.780
0.615,0.625,0.273,11.169,-11.780,22.217
0.613,0.634,0.340,11.841,-13.184,17.395
0.620,0.624,0.377,17.395,-12.390,13.245
0.628,0.607,0.380,23.193,-10.803,11.475
0.620,0.603,0.388,22.522,-9.155,11.353
0.618,0.605,0.388,19.897,-8.423,11.475
0.627,0.613,0.393,18.555,-8.728,11.719
0.610,0.585,0.398,19.226,-9.827,11.963
0.604,0.581,0.410,16.907,-11.292,11.597
0.613,0.596,0.423,13.123,-12.329,12.695
0.614,0.607,0.440,11.658,-13.428,14.526
0.637,0.663,0.484,9.949,-14.404,15.503
0.638,0.693,0.529,10.681,-13.733,15.137
0.650,0.713,0.548,13.794,-11.475,13.367
0.635,0.700,0.566,17.029,-8.972,10.742
0.624,0.718,0.585,13.550,-6.226,7.507
0.627,0.699,0.560,14.343,-3.174,4.150
0.629,0.663,0.534,14.893,-0.122,1.038
0.607,0.643,0.510,13.306,1.221,-1.526
0.612,0.629,0.499,10.559,1.709,-2.197
0.582,0.599,0.480,9.338,2.563,-2.502
0.594,0.587,0.462,8.423,2.686,-2.319
0.591,0.580,0.445,9.460,1.465,-1.221
0.594,0.554,0.441,10.986,-0.732,0.244
0.600,0.548,0.458,10.620,-3.296,1.404
0.609,0.563,0.493,10.071,-5.066,3.052
0.622,0.566,0.517,13.000,-6.470,4.517
0.633,0.584,0.541,14.282,-6.348,5.432
0.636,0.588,0.552,15.625,-5.249,5.676
0.623,0.615,0.550,16.602,-3.662,5.554
0.630,0.631,0.533,19.409,-2.014,5.920
0.627,0.662,0.509,18.433,-0.183,5.859
0.632,0.667,0.505,11.475,1.709,5.310
0.622,0.674,0.506,4.639,2.441,3.357
0.626,0.658,0.502,2.014,2.930,0.793
0.615,0.620,0.492,2.319,2.686,-1.160
0.606,0.583,0.489,2.441,1.526,-2.380
0.605,0.566,0.490,2.197,0.000,-1.831
0.592,0.573,0.490,3.418,-1.587,0.122
0.589,0.581,0.482,7.141,-2.075,2.747
0.598,0.604,0.472,11.108,-2.625,5.249
0.602,0.616,0.471,13.611,-3.967,6.775
0.608,0.626,0.486,14.099,-5.127,6.531
0.617,0.634,0.516,12.756,-5.859,5.798
0.617,0.628,0.547,12.146,-5.798,4.395
0.615,0.625,0.570,10.498,-4.639,3.113
0.621,0.629,0.583,7.507,-2.136,2.686
0.619,0.652,0.572,6.714,0.732,2.563
0.616,0.660,0.542,8.850,3.845,2.197
0.609,0.647,0.505,10.193,6.165,1.343
0.602,0.637,0.481,8.362,6.653,-0.488
0.602,0.628,0.469,7.385,5.920,-1.099
0.589,0.616,0.469,8.789,4.211,-1.343
0.577,0.617,0.475,9.521,2.930,-1.038
0.573,0.611,0.479,10.437,1.648,-0.610
0.586,0.592,0.487,11.536,0.244,-0.488
0.599,0.593,0.502,9.521,-0.854,-0.427
0.602,0.600,0.514,9.155,-0.916,-0.061
0.606,0.603,0.520,9.827,0.061,0.854
0.607,0.608,0.513,9.521,1.282,1.221
0.607,0.604,0.499,8.789,2.441,1.099
0.617,0.629,0.495,7.080,2.869,0.732
0.604,0.668,0.498,6.836,2.991,0.610
0.586,0.659,0.500,9.766,3.723,0.122
0.587,0.638,0.482,10.071,4.883,-2.075
0.591,0.601,0.478,7.507,4.944,-3.906
0.600,0.558,0.480,7.385,3.906,-5.066
0.601,0.532,0.487,6.165,2.625,-4.639

-0.408,1.455,1.188,-44.800,-259.033,91.797
-0.323,1.661,1.457,-56.641,-247.070,85.632
-0.247,1.860,1.844,-70.435,-232.788,71.777
-0.194,2.033,2.258,-76.416,-210.693,50.293
-0.148,2.168,2.645,-70.923,-176.331,21.667
-0.140,2.241,2.906,-57.861,-130.066,-14.526
-0.172,2.222,2.952,-40.710,-73.059,-56.091
-0.214,2.121,2.759,-23.621,-11.353,-97.656
-0.284,1.953,2.443,-7.629,44.678,-134.155
-0.420,1.828,2.175,-5.310,87.524,-165.710
-0.509,1.670,1.965,-6.531,118.469,-194.153
-0.598,1.503,1.820,-6.531,142.639,-219.238
-0.680,1.300,1.714,-6.226,163.452,-240.051
-0.719,1.070,1.617,-5.432,182.983,-255.859
-0.731,0.874,1.516,-6.104,201.172,-264.954
-0.728,0.705,1.408,-5.676,216.797,-267.212
-0.714,0.604,1.284,-4.028,229.553,-263.977
-0.700,0.526,1.159,0.610,239.807,-256.836
-0.692,0.439,0.998,5.188,247.803,-248.596
-0.678,0.341,0.793,2.930,253.174,-239.807
-0.648,0.216,0.593,-2.625,254.028,-230.347
-0.525,0.120,0.407,-8.423,250.122,-219.299
-0.387,0.032,0.231,-9.338,241.272,-205.261
-0.276,-0.044,0.085,-6.287,226.196,-188.904
-0.177,-0.104,-0.025,-2.319,207.825,-172.424
-0.084,-0.142,-0.115,4.089,187.988,-155.823
0.010,-0.191,-0.211,13.123,168.030,-137.878
0.086,-0.231,-0.287,21.484,147.400,-120.239
0.159,-0.252,-0.310,26.001,125.000,-103.699
0.225,-0.226,-0.275,29.968,102.478,-87.524
0.288,-0.173,-0.217,32.776,82.703,-72.754
0.333,-0.112,-0.149,32.959,66.467,-59.387
0.361,-0.027,-0.060,27.466,54.016,-47.974
0.403,0.042,0.017,23.010,45.898,-37.415
0.404,0.120,0.092,18.677,40.894,-29.358
0.416,0.169,0.130,16.357,38.574,-23.987
0.450,0.199,0.143,13.367,38.147,-21.362
0.485,0.201,0.147,9.216,37.781,-20.996
0.520,0.193,0.145,5.615,37.109,-20.630
0.527,0.208,0.133,6.287,35.767,-18.250
0.551,0.201,0.098,11.475,34.180,-14.038
0.553,0.230,0.045,16.968,31.555,-9.644
0.554,0.265,-0.017,22.461,26.489,-5.310
0.590,0.302,-0.057,24.963,18.066,-0.977
0.592,0.353,-0.051,22.095,7.324,3.540
0.619,0.394,0.003,13.855,-3.723,7.629
0.657,0.455,0.089,5.371,-13.367,11.292
0.668,0.497,0.179,1.831,-20.874,13.794
0.667,0.518,0.262,1.770,-25.085,14.526
0.680,0.529,0.326,3.723,-27.710,14.038
0.672,0.546,0.407,5.310,-28.687,13.428
0.669,0.549,0.469,8.972,-27.954,12.573
0.679,0.547,0.521,15.198,-25.879,11.230
0.682,0.557,0.542,21.423,-22.339,10.315
0.671,0.530,0.533,28.748,-18.433,10.437
0.653,0.595,0.554,23.865,-13.794,9.583
0.644,0.573,0.510,22.705,-8.484,7.446
0.642,0.562,0.485,18.921,-5.188,5.371
0.655,0.540,0.463,12.695,-3.906,4.089
0.638,0.539,0.476,7.568,-3.479,3.845
0.663,0.534,0.442,5.859,-2.991,4.456
0.649,0.529,0.451,6.897,-4.395,4.944
0.660,0.553,0.478,5.005,-5.798,5.127
0.663,0.547,0.489,7.141,-6.409,5.310
0.671,0.560,0.499,8.728,-6.348,5.127
0.680,0.557,0.502,10.742,-6.104,4.700
0.673,0.565,0.519,12.634,-5.737,3.845
0.665,0.554,0.510,16.663,-4.944,3.174
0.672,0.549,0.488,19.531,-3.723,3.174
0.670,0.548,0.466,19.165,-3.174,3.479
0.665,0.548,0.454,16.357,-3.479,3.601
0.675,0.549,0.458,12.024,-3.967,3.479
0.672,0.552,0.468,7.446,-4.150,3.235
0.673,0.546,0.484,4.822,-4.333,3.113
0.672,0.565,0.505,5.554,-4.150,3.052
0.662,0.550,0.506,10.559,-2.930,2.747
0.663,0.536,0.496,13.489,-1.404,1.953
0.659,0.528,0.485,13.245,-0.183,1.038
0.657,0.529,0.477,13.611,0.488,0.793
0.655,0.523,0.468,15.930,0.427,0.977
0.652,0.518,0.464,17.273,-0.061,1.526
0.653,0.522,0.468,17.395,-0.854,1.953
0.654,0.533,0.466,16.785,-1.282,2.930
0.652,0.541,0.464,14.038,-1.099,4.150
0.670,0.568,0.470,9.033,-0.916,4.883
0.665,0.565,0.475,6.348,-0.427,4.761
0.664,0.573,0.475,5.859,-0.183,3.601
0.668,0.550,0.461,8.728,0.183,1.953
0.663,0.521,0.445,11.353,-0.183,0.488
0.659,0.504,0.442,10.254,-1.160,0.122
0.654,0.508,0.455,7.141,-2.502,1.282
0.642,0.523,0.476,5.127,-3.418,2.930
0.637,0.549,0.498,5.920,-3.601,4.517
0.631,0.558,0.510,8.911,-3.540,5.188
0.641,0.566,0.521,10.376,-3.357,5.005
0.645,0.568,0.532,9.705,-2.747,4.150
0.646,0.574,0.538,9.216,-1.343,2.930
0.660,0.569,0.528,10.986,0.732,2.380
0.662,0.566,0.506,11.780,2.563,2.075
0.666,0.560,0.490,8.850,3.723,1.404
0.666,0.557,0.475,5.493,4.211,0.671
0.664,0.564,0.465,4.700,4.089,0.610
0.661,0.577,0.460,6.958,2.930,1.160
0.654,0.591,0.456,10.071,1.770,1.892
0.650,0.595,0.453,12.451,0.793,2.075
0.652,0.589,0.453,12.573,-0.183,1.099
0.661,0.565,0.455,12.085,-1.221,-0.061
0.660,0.556,0.462,11.597,-2.136,-0.549
0.654,0.529,0.465,14.404,-2.869,-0.610
0.652,0.517,0.465,15.869,-3.174,-0.427
0.649,0.509,0.471,16.052,-3.967,0.061
0.642,0.511,0.478,15.137,-4.578,0.977
0.645,0.533,0.495,13.550,-5.005,2.380
0.642,0.557,0.511,11.902,-5.005,3.906
0.641,0.584,0.523,9.521,-4.333,4.333
0.642,0.581,0.522,8.972,-2.808,3.723
0.646,0.571,0.508,8.911,-0.977,2.136
0.647,0.559,0.494,9.094,-0.183,0.366
0.643,0.534,0.476,10.864,0.244,-0.671

-0.179,1.365,1.120,6.592,-209.595,95.703
-0.205,1.470,1.011,-8.057,-191.711,86.609
-0.219,1.557,0.798,-34.607,-181.274,77.148
-0.269,1.580,0.677,-67.688,-181.030,64.514
-0.309,1.595,0.714,-96.252,-188.599,48.889
-0.327,1.531,0.845,-105.835,-198.547,33.752
-0.328,1.412,1.080,-100.952,-205.017,19.531
-0.307,1.291,1.344,-88.745,-203.674,9.949
-0.250,1.215,1.588,-72.998,-194.336,6.348
-0.189,1.226,1.808,-57.983,-178.650,6.042
-0.155,1.273,1.999,-39.124,-157.166,6.226
-0.150,1.382,2.180,-23.376,-131.226,2.930
-0.142,1.512,2.323,-13.184,-100.098,-5.310
-0.173,1.627,2.379,-8.301,-62.988,-21.240
-0.177,1.739,2.374,-4.456,-22.827,-44.128
-0.229,1.771,2.356,-2.869,15.686,-70.984
-0.297,1.863,2.317,-6.470,53.101,-100.708
-0.424,1.813,2.241,-3.479,90.027,-132.629
-0.526,1.694,2.083,0.427,124.939,-165.466
-0.646,1.516,1.886,5.188,155.579,-196.045
-0.729,1.311,1.693,13.550,180.969,-221.130
-0.810,1.113,1.545,19.226,202.332,-239.380
-0.835,0.910,1.397,21.851,220.764,-251.221
-0.812,0.768,1.221,22.156,235.657,-257.263
-0.779,0.612,1.052,25.452,247.498,-258.606
-0.767,0.493,0.889,28.503,255.737,-256.531
-0.743,0.355,0.723,28.137,260.803,-251.831
-0.720,0.207,0.581,24.109,263.672,-245.667
-0.686,0.078,0.419,10.864,264.160,-237.427
-0.625,-0.088,0.249,-4.456,261.780,-227.661
-0.558,-0.227,0.095,-15.930,254.578,-215.881
-0.473,-0.360,-0.081,-17.822,242.493,-200.684
-0.358,-0.493,-0.259,-10.071,224.976,-182.373
-0.209,-0.615,-0.437,2.319,202.087,-160.461
-0.056,-0.646,-0.546,14.587,174.866,-134.888
0.062,-0.620,-0.602,25.757,144.531,-105.286
0.162,-0.488,-0.579,33.691,113.281,-74.341
0.219,-0.300,-0.505,37.598,83.374,-46.753
0.282,-0.145,-0.414,39.490,57.068,-26.611
0.348,-0.016,-0.293,39.063,36.743,-14.709
0.411,0.086,-0.184,36.987,22.522,-8.606
0.483,0.163,-0.063,31.494,13.000,-4.456
0.516,0.237,0.053,21.423,7.324,-2.136
0.535,0.287,0.155,13.367,6.409,-0.488
0.559,0.329,0.234,7.935,8.240,0.122
0.584,0.382,0.279,6.714,11.292,0.305
0.600,0.426,0.277,11.047,14.587,0.427
0.620,0.461,0.256,16.663,16.907,0.000
0.626,0.484,0.225,20.142,17.395,-1.587
0.623,0.489,0.203,21.057,16.724,-2.930
0.627,0.478,0.183,20.142,14.099,-2.808
0.625,0.476,0.188,17.883,9.644,-1.526
0.615,0.493,0.208,15.259,4.700,0.183
0.613,0.476,0.226,15.625,0.366,2.380
0.626,0.488,0.252,14.587,-3.845,4.211
0.631,0.505,0.303,15.137,-7.446,5.615
0.628,0.502,0.340,16.663,-10.254,6.714
0.640,0.526,0.381,13.672,-12.634,7.874
0.653,0.538,0.425,14.709,-14.526,9.155
0.647,0.557,0.462,17.883,-15.564,10.803
0.633,0.588,0.495,19.592,-15.198,11.536
0.656,0.627,0.513,19.958,-13.306,10.864
0.655,0.647,0.514,20.264,-11.108,8.972
0.659,0.637,0.512,18.188,-8.667,5.981
0.659,0.618,0.518,11.780,-6.592,2.319
0.653,0.583,0.524,4.944,-4.517,-0.183
0.669,0.567,0.526,1.709,-2.380,-1.282
0.641,0.557,0.507,2.869,-1.221,-0.916
0.659,0.576,0.492,6.653,0.183,0.549
0.651,0.550,0.441,17.944,-0.977,1.404
0.649,0.556,0.461,16.296,-3.906,0.366
0.668,0.542,0.488,13.184,-5.615,-0.854
0.658,0.536,0.503,13.794,-5.859,-1.099
0.672,0.532,0.504,13.000,-5.127,0.366
0.660,0.541,0.505,12.390,-4.150,2.014
0.654,0.545,0.508,10.681,-3.235,2.625
0.666,0.532,0.501,9.705,-2.319,1.953
0.671,0.524,0.483,9.583,-1.648,0.916
0.658,0.556,0.468,7.812,-1.770,1.343
0.662,0.565,0.474,5.432,-1.709,2.441
0.650,0.571,0.479,3.235,-1.831,2.625
0.649,0.555,0.486,1.343,-1.343,1.587
0.656,0.532,0.489,0.977,-1.343,0.305
0.654,0.509,0.484,2.075,-1.648,-0.183
0.645,0.533,0.473,2.869,-1.465,0.488
0.645,0.566,0.474,3.906,-1.465,2.441
0.635,0.571,0.473,7.263,-1.770,3.662
0.634,0.561,0.483,8.118,-2.258,2.686
0.630,0.527,0.493,8.667,-2.991,0.977
0.639,0.477,0.500,9.521,-3.296,-0.305
0.641,0.449,0.504,9.460,-3.052,0.488
0.634,0.502,0.495,9.705,-2.319,3.601
0.625,0.554,0.470,13.184,-0.977,8.545
0.624,0.581,0.444,16.296,-0.549,11.169
0.630,0.604,0.446,11.230,-1.831,9.766
0.648,0.598,0.467,7.446,-3.967,6.348
0.656,0.588,0.507,7.629,-5.493,3.235
0.648,0.577,0.536,10.193,-5.798,1.648
0.661,0.564,0.546,13.489,-4.395,1.404
0.648,0.564,0.537,13.855,-2.075,1.465
0.642,0.556,0.530,12.268,-0.061,1.526
0.642,0.555,0.526,10.742,0.671,1.526
0.638,0.555,0.524,10.193,0.549,1.465
0.642,0.561,0.516,10.742,0.549,1.282
0.649,0.552,0.500,11.414,0.732,1.343
0.649,0.547,0.483,9.399,0.671,1.282
0.651,0.542,0.477,6.531,0.000,1.465
0.654,0.542,0.481,4.089,-1.282,1.892
0.650,0.559,0.496,3.601,-2.380,2.441
0.642,0.571,0.503,6.287,-3.296,3.296
0.645,0.591,0.504,10.986,-3.662,3.723
0.651,0.602,0.513,13.306,-3.967,3.296
0.653,0.613,0.533,13.367,-4.333,2.075
0.654,0.617,0.562,10.925,-4.150,0.305
0.653,0.607,0.583,9.155,-2.502,-1.221
0.649,0.605,0.585,7.629,-0.061,-2.319
0.641,0.593,0.574,7.996,2.869,-2.808
0.633,0.587,0.553,8.423,5.005,-3.235
0.631,0.564,0.531,7.629,6.165,-3.479

-0.573,1.778,1.138,15.564,-300.049,154.358
-0.483,2.021,1.472,9.583,-291.382,137.207
-0.413,2.368,1.737,-7.507,-270.935,117.676
-0.370,2.645,1.941,-36.926,-244.141,89.539
-0.330,2.881,2.174,-68.359,-212.219,48.584
-0.298,2.947,2.438,-86.426,-177.246,-2.686
-0.354,2.859,2.694,-92.712,-138.916,-61.157
-0.405,2.572,2.822,-86.670,-93.506,-119.446
-0.450,2.166,2.837,-72.449,-41.016,-168.701
-0.485,1.844,2.778,-62.439,9.705,-204.468
-0.557,1.618,2.688,-49.316,57.861,-227.356
-0.697,1.443,2.480,-25.208,104.248,-243.225
-0.812,1.273,2.161,-3.723,146.301,-256.226
-0.802,1.178,1.820,6.470,181.274,-267.090
-0.837,1.053,1.562,16.113,205.200,-276.489
-0.854,0.920,1.431,17.578,218.872,-283.691
-0.855,0.825,1.379,10.681,229.370,-286.743
-0.861,0.752,1.314,4.333,241.516,-287.720
-0.875,0.643,1.204,0.366,254.944,-287.598
-0.873,0.484,1.035,-3.052,267.456,-285.706
-0.841,0.318,0.828,-10.986,275.940,-281.250
-0.797,0.148,0.622,-21.667,278.564,-273.132
-0.673,0.012,0.415,-28.320,276.245,-260.132
-0.547,-0.099,0.210,-25.330,269.958,-243.652
-0.420,-0.150,0.013,-19.043,258.728,-224.915
-0.269,-0.191,-0.171,-8.545,243.164,-204.590
-0.148,-0.222,-0.333,5.005,223.267,-184.082
-0.067,-0.277,-0.461,15.259,198.730,-164.307
0.014,-0.328,-0.524,18.127,171.265,-146.790
0.083,-0.394,-0.531,19.104,142.456,-130.859
0.172,-0.436,-0.492,21.057,114.441,-114.380
0.233,-0.417,-0.401,26.062,88.257,-95.154
0.282,-0.407,-0.323,34.973,66.467,-74.707
0.346,-0.258,-0.213,36.377,50.842,-54.993
0.454,-0.147,-0.155,42.236,40.100,-38.940
0.482,-0.085,-0.109,49.133,31.067,-27.832
0.498,-0.009,-0.044,45.471,25.269,-20.386
0.528,0.055,0.002,36.865,22.583,-15.381
0.565,0.103,0.026,29.114,22.217,-11.169
0.595,0.157,0.043,23.682,22.888,-7.141
0.613,0.212,0.042,22.644,22.949,-3.845
0.619,0.258,0.023,22.644,21.667,-1.587
0.616,0.308,-0.005,20.996,18.616,0.366
0.628,0.321,-0.020,18.555,14.221,1.709
0.653,0.354,-0.015,16.785,7.812,2.502
0.643,0.367,-0.002,18.188,0.671,4.456
0.665,0.377,0.019,21.606,-5.859,7.874
0.677,0.416,0.077,18.799,-12.634,11.292
0.686,0.447,0.143,15.198,-18.555,14.526
0.698,0.457,0.206,14.282,-23.010,17.456
0.712,0.490,0.307,14.404,-26.672,19.409
0.719,0.534,0.393,14.771,-28.320,19.592
0.730,0.562,0.439,23.315,-26.978,19.226
0.725,0.562,0.448,33.997,-24.353,18.433
0.696,0.623,0.465,30.945,-20.569,16.602
0.711,0.640,0.458,22.217,-15.137,13.245
0.714,0.633,0.453,15.198,-10.315,8.606
0.715,0.602,0.437,9.949,-6.775,4.089
0.712,0.575,0.416,7.629,-4.211,1.099
0.728,0.560,0.373,7.568,-1.831,-0.183
0.708,0.517,0.335,10.193,-1.282,-0.671
0.705,0.499,0.333,10.376,-3.235,-0.488
0.704,0.467,0.336,11.536,-5.737,0.427
0.702,0.459,0.347,13.550,-8.240,2.197
0.704,0.464,0.350,16.907,-10.803,4.639
0.718,0.487,0.379,20.813,-13.489,7.019
0.721,0.504,0.415,22.949,-15.381,8.484
0.709,0.530,0.440,22.217,-15.503,8.728
0.726,0.536,0.449,20.691,-14.160,7.996
0.717,0.537,0.449,19.348,-11.902,7.141
0.712,0.542,0.446,17.822,-10.376,6.104
0.709,0.538,0.436,17.151,-8.606,5.432
0.699,0.538,0.423,15.259,-7.568,4.883
0.693,0.525,0.414,12.695,-6.897,4.456
0.688,0.514,0.416,8.057,-6.470,4.028
0.688,0.499,0.424,5.005,-6.470,4.150
0.690,0.495,0.428,4.639,-6.714,5.066
0.690,0.510,0.424,6.104,-7.263,6.470
0.698,0.532,0.426,9.033,-7.996,7.690
0.701,0.560,0.437,11.597,-8.911,7.996
0.695,0.579,0.451,14.221,-9.094,7.324
0.704,0.591,0.467,15.930,-8.301,6.165
0.704,0.588,0.471,16.541,-7.385,4.395
0.718,0.560,0.469,16.418,-6.104,2.686
0.709,0.548,0.469,14.893,-4.822,1.343
0.703,0.545,0.464,11.841,-3.601,0.793
0.704,0.543,0.453,9.460,-2.258,0.854
0.697,0.559,0.443,7.446,-1.099,1.282
0.689,0.555,0.431,8.301,-0.610,1.465
0.688,0.541,0.426,9.644,-0.732,1.099
0.685,0.519,0.428,11.353,-1.648,0.488
0.686,0.500,0.432,12.817,-3.052,0.244
0.693,0.478,0.432,13.794,-4.089,0.977
0.691,0.483,0.432,14.526,-4.700,2.563
0.691,0.505,0.431,15.259,-4.944,4.578
0.684,0.521,0.426,17.944,-5.310,6.104
0.685,0.556,0.419,20.874,-5.737,6.287
0.690,0.561,0.423,22.339,-6.409,5.493
0.681,0.554,0.431,20.935,-6.775,3.601
0.688,0.541,0.444,16.113,-6.470,2.014
0.702,0.538,0.473,9.155,-5.981,1.343
0.695,0.528,0.498,4.639,-4.883,1.526
0.691,0.522,0.498,4.272,-3.418,1.953
0.691,0.513,0.484,7.019,-1.709,2.136
0.691,0.512,0.460,9.705,-0.977,2.502
0.686,0.513,0.444,11.902,-1.587,3.052
0.689,0.509,0.441,12.695,-2.869,3.601
0.693,0.511,0.446,11.902,-4.028,3.906
0.697,0.535,0.453,11.475,-4.883,4.517
0.696,0.552,0.460,11.780,-5.493,5.371
0.697,0.562,0.470,11.169,-5.676,5.188
0.699,0.572,0.484,9.888,-5.493,4.150
0.709,0.577,0.500,9.460,-5.249,2.869
0.701,0.573,0.508,10.559,-4.761,1.526
0.693,0.550,0.512,11.597,-3.662,0.244
0.696,0.532,0.512,10.071,-2.136,-0.854
0.687,0.515,0.511,8.118,-0.916,-1.404
0.671,0.515,0.505,7.385,0.000,-0.488
0.661,0.521,0.496,8.545,0.671,0.793

-0.344,1.514,0.771,-2.014,-215.027,91.675
-0.304,1.503,0.663,-17.639,-208.374,76.904
-0.280,1.533,0.753,-39.063,-211.853,65.491
-0.213,1.632,1.087,-59.631,-218.323,57.983
-0.128,1.796,1.498,-73.181,-217.957,49.194
-0.088,1.926,1.917,-74.097,-202.698,35.889
0.000,2.009,2.238,-67.505,-173.523,16.846
0.086,2.062,2.518,-65.735,-135.254,-7.202
0.122,2.092,2.716,-63.049,-90.942,-35.034
0.086,2.074,2.754,-49.561,-40.649,-65.308
0.045,1.977,2.630,-28.564,10.925,-95.886
-0.004,1.903,2.445,-12.390,59.143,-125.610
-0.126,1.791,2.242,0.061,99.365,-154.053
-0.261,1.647,2.042,5.798,131.531,-180.969
-0.394,1.508,1.850,6.897,159.424,-203.735
-0.537,1.336,1.641,7.080,182.922,-221.191
-0.618,1.190,1.473,-1.831,200.745,-234.924
-0.644,1.016,1.295,-5.920,211.792,-243.408
-0.622,0.865,1.176,-9.338,216.492,-245.483
-0.578,0.759,1.093,-18.616,217.224,-243.652
-0.539,0.696,1.007,-28.564,216.980,-240.112
-0.478,0.599,0.916,-26.733,216.309,-234.497
-0.401,0.550,0.849,-25.085,212.891,-227.112
-0.353,0.500,0.794,-22.156,208.008,-219.055
-0.348,0.428,0.732,-15.503,203.857,-210.937
-0.317,0.346,0.628,-5.554,201.355,-202.454
-0.286,0.232,0.487,4.028,199.646,-193.909
-0.307,0.124,0.332,12.512,197.815,-186.096
-0.282,0.028,0.182,18.127,194.641,-178.833
-0.219,-0.089,0.032,20.752,188.843,-170.837
-0.126,-0.232,-0.129,29.907,179.993,-162.048
-0.062,-0.364,-0.260,37.903,167.725,-150.208
-0.008,-0.454,-0.375,38.147,152.954,-135.010
0.072,-0.481,-0.446,33.752,136.414,-117.554
0.137,-0.489,-0.476,27.527,118.347,-98.083
0.287,-0.405,-0.432,22.705,99.304,-77.820
0.276,-0.269,-0.343,19.409,80.505,-58.350
0.359,-0.056,-0.309,16.479,66.345,-42.053
0.407,-0.005,-0.274,22.278,55.908,-31.738
0.425,0.046,-0.236,19.348,47.302,-26.978
0.486,0.049,-0.180,10.986,39.307,-24.414
0.534,0.061,-0.109,7.446,31.799,-20.935
0.545,0.062,-0.068,9.766,25.024,-15.747
0.560,0.109,-0.070,14.160,19.470,-8.972
0.574,0.163,-0.064,20.996,14.404,-1.892
0.587,0.241,-0.061,26.245,8.423,4.150
0.596,0.308,-0.051,31.128,2.258,7.812
0.630,0.321,-0.048,37.292,-4.333,9.644
0.623,0.341,0.005,35.095,-10.437,10.132
0.624,0.344,0.054,24.414,-14.954,9.521
0.651,0.317,0.091,17.029,-17.029,10.193
0.667,0.327,0.141,6.775,-19.409,13.367
0.680,0.361,0.192,1.160,-21.545,18.372
0.700,0.425,0.240,0.549,-23.193,22.644
0.724,0.483,0.276,1.526,-23.926,24.841
0.737,0.535,0.324,4.517,-24.048,24.719
0.733,0.561,0.361,8.301,-22.644,22.827
0.742,0.578,0.376,11.902,-20.020,19.104
0.739,0.580,0.367,15.869,-16.663,14.954
0.729,0.542,0.340,17.700,-13.977,10.925
0.731,0.496,0.312,19.470,-13.367,8.911
0.718,0.484,0.286,16.846,-14.893,9.094
0.709,0.476,0.272,17.273,-17.700,9.827
0.713,0.459,0.300,17.883,-21.545,11.230
0.719,0.484,0.357,14.404,-25.146,12.817
0.728,0.505,0.418,11.780,-27.039,14.099
0.734,0.525,0.473,11.047,-26.367,14.832
0.731,0.549,0.510,10.132,-23.560,14.221
0.736,0.564,0.520,10.071,-18.860,13.489
0.735,0.577,0.516,8.789,-14.038,11.963
0.742,0.580,0.501,7.202,-10.132,9.705
0.739,0.568,0.478,6.409,-7.141,7.446
0.734,0.558,0.446,6.104,-4.944,5.493
0.740,0.530,0.408,7.996,-3.418,4.517
0.746,0.518,0.369,10.864,-2.869,4.395
0.749,0.512,0.342,11.658,-3.723,4.578
0.747,0.522,0.327,12.817,-5.676,5.127
0.745,0.522,0.328,14.465,-7.874,5.493
0.732,0.512,0.338,15.442,-9.949,5.371
0.736,0.509,0.355,14.404,-11.658,5.371
0.744,0.516,0.386,13.428,-13.000,5.920
0.735,0.521,0.423,14.099,-13.977,6.592
0.732,0.539,0.452,14.954,-13.733,7.568
0.715,0.560,0.467,14.648,-12.085,8.667
0.718,0.588,0.479,11.230,-9.399,9.155
0.706,0.618,0.480,9.460,-7.446,8.240
0.701,0.621,0.481,9.583,-6.165,6.409
0.705,0.606,0.478,9.460,-5.249,3.845
0.706,0.569,0.470,9.766,-4.517,1.343
0.712,0.544,0.473,8.362,-4.150,0.000
0.712,0.521,0.467,8.972,-4.089,0.183
0.718,0.520,0.458,9.094,-3.845,1.770
0.723,0.521,0.449,9.888,-3.662,3.479
0.720,0.533,0.433,11.292,-3.479,4.639
0.717,0.547,0.418,12.695,-3.296,5.005
0.718,0.551,0.399,14.404,-3.540,4.639
0.712,0.554,0.394,14.465,-4.211,3.784
0.710,0.547,0.408,13.428,-5.188,3.174
0.709,0.546,0.436,10.254,-5.859,2.808
0.708,0.544,0.460,7.263,-5.920,2.502
0.703,0.543,0.472,6.653,-5.249,2.625
0.701,0.524,0.467,8.118,-4.578,2.869
0.699,0.517,0.462,7.446,-4.333,3.174
0.702,0.514,0.463,6.409,-4.639,3.967
0.708,0.536,0.467,6.165,-4.883,4.944
0.698,0.557,0.469,8.789,-4.822,6.042
0.693,0.574,0.454,13.550,-4.211,6.165
0.703,0.571,0.440,15.930,-3.784,5.066
0.701,0.562,0.435,15.442,-4.028,2.686
0.702,0.554,0.442,15.320,-4.700,1.038
0.703,0.541,0.451,15.930,-4.700,0.854
0.701,0.538,0.460,15.503,-4.272,1.404
0.703,0.545,0.471,12.024,-3.601,2.014
0.703,0.551,0.479,8.850,-2.747,2.441
0.698,0.561,0.483,6.470,-1.892,2.625
0.699,0.568,0.480,6.836,-1.221,2.258
0.697,0.567,0.470,8.972,-0.793,1.770
0.697,0.554,0.454,9.827,-0.061,0.854
0.703,0.532,0.439,8.850,0.366,0.061

-0.307,1.452,1.130,9.216,-234.802,88.135
-0.317,1.426,1.260,-0.244,-223.389,79.468
-0.310,1.354,1.192,-16.541,-206.665,73.975
-0.351,1.364,1.084,-44.495,-192.078,70.435
-0.357,1.394,0.949,-69.031,-183.411,68.542
-0.360,1.459,0.863,-83.313,-182.129,65.063
-0.363,1.547,0.846,-82.764,-187.805,58.044
-0.381,1.671,0.951,-69.214,-196.350,47.424
-0.382,1.703,1.102,-50.964,-202.332,33.630
-0.327,1.745,1.337,-46.509,-201.599,16.418
-0.298,1.780,1.586,-45.410,-192.444,0.854
-0.231,1.792,1.862,-41.626,-176.392,-12.024
-0.198,1.819,2.197,-39.246,-154.419,-26.550
-0.226,1.862,2.492,-38.940,-123.657,-46.082
-0.257,1.845,2.647,-33.203,-81.543,-70.984
-0.291,1.797,2.667,-25.635,-30.762,-100.403
-0.302,1.679,2.558,-14.038,21.545,-130.981
-0.352,1.552,2.393,4.395,69.763,-158.875
-0.466,1.436,2.203,22.217,110.657,-182.312
-0.549,1.347,1.995,29.724,147.583,-202.515
-0.604,1.254,1.763,28.687,181.580,-221.008
-0.676,1.158,1.537,31.433,210.144,-238.586
-0.737,1.019,1.350,34.851,231.689,-253.784
-0.757,0.890,1.187,38.269,247.192,-265.137
-0.798,0.771,1.082,43.884,260.132,-274.048
-0.823,0.643,0.965,49.438,271.912,-279.846
-0.851,0.506,0.816,56.030,283.325,-282.410
-0.883,0.340,0.635,60.181,293.945,-281.433
-0.915,0.129,0.413,56.580,302.673,-276.733
-0.923,-0.036,0.125,37.476,306.213,-267.151
-0.860,-0.208,-0.154,8.606,304.016,-253.601
-0.725,-0.393,-0.428,-12.207,292.603,-235.840
-0.517,-0.559,-0.672,-22.278,270.264,-212.830
-0.302,-0.651,-0.818,-24.170,237.244,-186.707
-0.120,-0.716,-0.855,-12.756,194.946,-158.081
0.030,-0.692,-0.798,1.404,148.987,-129.150
0.135,-0.627,-0.654,15.320,106.201,-99.854
0.214,-0.491,-0.482,28.809,70.923,-71.411
0.288,-0.308,-0.322,40.588,45.959,-46.692
0.345,-0.164,-0.226,57.068,31.189,-27.649
0.381,-0.027,-0.188,67.993,22.827,-14.771
0.435,0.064,-0.193,69.946,16.052,-6.409
0.451,0.105,-0.151,52.063,8.423,-2.441
0.485,0.142,-0.052,21.667,1.587,-1.709
0.550,0.132,0.043,0.854,-3.540,-0.366
0.586,0.140,0.146,-4.517,-7.019,3.601
0.628,0.200,0.230,-0.916,-9.277,9.521
0.658,0.289,0.277,9.583,-8.667,15.991
0.665,0.388,0.279,22.888,-6.897,21.118
0.687,0.489,0.268,32.715,-4.761,22.705
0.695,0.539,0.239,38.208,-3.052,21.729
0.702,0.606,0.215,40.771,-3.601,19.714
0.697,0.646,0.214,37.842,-5.615,16.602
0.692,0.678,0.228,32.532,-7.629,12.573
0.685,0.659,0.246,26.001,-9.949,7.996
0.682,0.603,0.277,18.494,-12.207,4.150
0.689,0.562,0.325,11.292,-14.648,1.587
0.693,0.537,0.372,9.827,-17.151,1.465
0.683,0.504,0.408,13.916,-19.348,3.174
0.661,0.504,0.436,16.724,-20.325,5.188
0.669,0.490,0.457,19.287,-20.813,6.714
0.655,0.493,0.481,21.057,-21.179,7.629
0.669,0.482,0.505,21.118,-20.691,8.118
0.677,0.511,0.550,21.179,-19.775,8.118
0.673,0.531,0.575,22.522,-17.517,8.423
0.693,0.531,0.562,29.785,-14.709,9.644
0.660,0.583,0.578,25.024,-11.536,9.949
0.677,0.617,0.563,13.367,-7.263,8.423
0.707,0.639,0.564,6.409,-2.686,6.226
0.704,0.599,0.521,7.690,0.183,2.991
0.688,0.573,0.518,6.592,0.854,-0.305
0.687,0.563,0.508,7.141,1.221,-2.808
0.678,0.521,0.477,11.841,1.709,-3.296
0.677,0.497,0.445,13.000,1.709,-3.052
0.670,0.486,0.427,9.766,0.732,-1.831
0.666,0.480,0.428,6.836,-0.854,0.061
0.673,0.481,0.432,6.836,-2.380,1.831
0.682,0.482,0.441,8.789,-3.845,3.601
0.683,0.494,0.458,10.071,-5.249,4.761
0.686,0.520,0.474,9.949,-5.859,5.798
0.681,0.543,0.483,10.071,-5.615,5.737
0.691,0.552,0.489,10.132,-5.127,4.456
0.690,0.536,0.491,8.850,-4.639,2.686
0.688,0.527,0.497,6.775,-4.211,1.099
0.691,0.541,0.501,6.226,-3.357,0.854
0.677,0.523,0.479,9.949,-1.953,2.136
0.670,0.524,0.454,10.315,-1.221,3.601
0.662,0.528,0.442,8.789,-2.197,4.639
0.674,0.552,0.443,7.812,-4.272,5.676
0.657,0.570,0.456,8.545,-6.042,5.981
0.657,0.554,0.474,10.193,-7.629,4.944
0.664,0.522,0.494,8.789,-8.362,3.235
0.673,0.478,0.515,6.897,-8.728,2.136
0.681,0.454,0.525,5.920,-8.545,2.502
0.678,0.485,0.533,7.202,-7.996,4.761
0.671,0.540,0.543,9.827,-7.385,8.118
0.669,0.567,0.541,13.855,-6.165,10.376
0.668,0.589,0.539,14.099,-5.188,10.010
0.673,0.593,0.545,12.512,-4.517,7.446
0.669,0.578,0.541,12.390,-4.150,5.249
0.656,0.571,0.535,12.390,-3.662,4.211
0.646,0.582,0.526,8.606,-3.174,4.211
0.643,0.609,0.534,3.174,-2.441,3.967
0.646,0.590,0.538,3.601,-1.953,3.418
0.660,0.571,0.540,4.944,-1.526,1.770
0.677,0.552,0.541,6.775,-1.404,-0.061
0.674,0.537,0.532,10.498,-1.343,-0.793
0.694,0.529,0.514,13.367,-0.977,-0.488
0.673,0.562,0.521,10.681,-0.122,-0.305
0.677,0.544,0.500,9.460,0.916,-0.671
0.674,0.543,0.501,7.507,1.160,-0.549
0.673,0.552,0.503,4.578,1.465,-0.488
0.666,0.555,0.499,7.202,1.343,-0.366
0.661,0.564,0.488,10.193,1.038,0.061
0.661,0.563,0.483,11.169,0.488,0.427
0.660,0.559,0.500,7.507,-0.488,0.427
0.661,0.551,0.526,3.845,-1.221,-0.488
0.659,0.540,0.541,3.052,-1.038,-1.099
0.656,0.537,0.539,4.395,-0.122,-1.343

-0.661,1.571,1.189,-12.756,-320.801,139.832
-0.669,1.783,1.561,-27.283,-309.143,134.399
-0.549,2.006,1.763,-48.096,-282.227,124.023
-0.404,2.217,1.925,-66.223,-250.305,103.882
-0.268,2.408,2.191,-73.425,-219.849,72.021
-0.142,2.544,2.517,-67.932,-188.232,31.799
-0.110,2.630,2.780,-55.420,-148.865,-12.573
-0.138,2.648,2.875,-44.128,-97.900,-61.218
-0.171,2.571,2.724,-41.321,-38.269,-111.572
-0.225,2.367,2.418,-41.138,17.151,-160.034
-0.338,2.146,2.161,-39.612,58.899,-202.576
-0.460,1.921,2.011,-42.603,87.769,-237.793
-0.542,1.641,1.919,-40.222,111.694,-266.785
-0.599,1.436,1.867,-35.583,133.911,-287.476
-0.635,1.249,1.821,-25.513,155.640,-300.537
-0.673,1.084,1.784,-15.564,176.147,-308.960
-0.729,0.919,1.736,-6.470,196.533,-314.331
-0.787,0.777,1.642,3.601,216.919,-314.941
-0.822,0.606,1.458,12.268,236.328,-311.218
-0.841,0.461,1.259,12.573,251.892,-305.847
-0.858,0.269,0.994,13.611,262.817,-297.607
-0.895,0.045,0.741,10.437,269.104,-285.583
-0.822,-0.097,0.460,-1.282,270.813,-270.752
-0.672,-0.268,0.188,-11.719,266.418,-253.540
-0.527,-0.406,-0.048,-11.475,255.127,-234.009
-0.375,-0.523,-0.247,1.526,236.633,-211.670
-0.215,-0.645,-0.417,21.118,210.632,-184.387
-0.102,-0.666,-0.494,35.278,179.321,-154.053
0.007,-0.635,-0.527,49.988,146.179,-122.742
0.078,-0.527,-0.482,57.922,114.197,-92.285
0.143,-0.367,-0.383,56.641,86.121,-65.735
0.218,-0.185,-0.295,49.622,65.430,-46.570
0.291,-0.070,-0.200,43.152,51.025,-34.607
0.362,0.022,-0.113,37.354,40.710,-27.344
0.394,0.060,-0.042,33.203,33.203,-22.766
0.424,0.159,0.094,26.367,28.687,-19.470
0.491,0.201,0.136,30.579,27.100,-16.479
0.484,0.236,0.135,39.734,25.940,-13.062
0.530,0.269,0.154,39.490,25.513,-10.071
0.562,0.313,0.188,32.288,25.879,-8.057
0.565,0.320,0.176,24.841,26.672,-7.629
0.594,0.320,0.172,20.691,27.405,-8.545
0.617,0.314,0.138,20.142,26.611,-8.606
0.627,0.296,0.078,25.757,23.499,-7.202
0.622,0.286,0.009,30.823,18.372,-4.578
0.626,0.307,-0.027,28.564,11.230,-1.038
0.646,0.326,-0.025,22.217,2.136,4.211
0.656,0.364,0.032,16.785,-7.629,9.338
0.689,0.405,0.133,16.113,-17.151,13.611
0.692,0.429,0.244,20.142,-24.902,16.113
0.688,0.480,0.348,25.940,-29.480,16.785
0.702,0.501,0.420,28.625,-30.396,17.273
0.698,0.536,0.480,25.024,-28.503,16.846
0.719,0.556,0.500,17.883,-24.109,15.808
0.702,0.527,0.501,19.104,-18.982,15.564
0.686,0.568,0.515,13.794,-15.015,15.991
0.683,0.591,0.486,7.141,-9.888,14.282
0.680,0.572,0.436,8.301,-5.981,10.681
0.685,0.543,0.401,6.653,-5.920,7.202
0.687,0.511,0.398,6.042,-8.179,5.371
0.683,0.491,0.432,6.897,-10.925,5.554
0.679,0.497,0.460,8.667,-13.000,6.775
0.679,0.508,0.469,13.245,-13.000,8.240
0.689,0.534,0.459,19.714,-12.695,9.460
0.693,0.548,0.460,25.146,-12.939,9.521
0.695,0.564,0.474,24.780,-13.000,8.423
0.699,0.560,0.497,18.555,-12.085,6.958
0.692,0.564,0.514,11.902,-10.376,5.371
0.712,0.546,0.517,8.850,-7.812,3.784
0.703,0.512,0.505,8.179,-5.310,2.625
0.702,0.485,0.494,4.639,-3.479,2.441
0.699,0.473,0.486,0.427,-2.197,3.296
0.689,0.483,0.479,0.000,-1.831,5.005
0.682,0.536,0.470,4.028,-1.709,6.714
0.676,0.558,0.444,14.526,-1.648,7.507
0.683,0.570,0.419,19.897,-2.197,6.653
0.680,0.572,0.419,16.968,-3.235,4.211
0.669,0.548,0.439,11.963,-4.333,1.831
0.658,0.512,0.457,9.399,-4.883,0.610
0.653,0.499,0.469,9.094,-5.066,0.366
0.668,0.473,0.471,13.794,-5.249,1.282
0.670,0.463,0.461,21.423,-5.310,2.625
0.687,0.452,0.445,25.330,-5.615,3.113
0.674,0.450,0.441,23.437,-6.226,3.418
0.673,0.448,0.443,18.738,-6.592,4.883
0.682,0.451,0.447,11.292,-6.592,7.141
0.685,0.474,0.454,5.615,-6.836,9.583
0.676,0.550,0.462,3.357,-7.263,12.085
0.668,0.619,0.471,5.127,-7.568,14.404
0.664,0.650,0.477,7.935,-7.996,14.221
0.670,0.654,0.499,4.517,-8.911,10.071
0.669,0.625,0.542,1.343,-9.888,4.578
0.673,0.581,0.581,1.282,-10.315,0.793
0.669,0.562,0.613,3.479,-9.338,-0.549
0.670,0.546,0.623,9.094,-7.263,0.366
0.667,0.542,0.607,14.099,-4.883,1.709
0.669,0.561,0.590,14.893,-2.563,2.441
0.677,0.556,0.566,15.381,-0.732,2.258
0.673,0.552,0.542,14.343,0.549,1.587
0.685,0.562,0.517,11.597,1.099,0.488
0.685,0.563,0.516,10.315,1.221,-0.488
0.674,0.548,0.501,9.338,2.502,-1.160
0.684,0.528,0.489,5.615,3.662,-1.770
0.676,0.515,0.483,2.258,3.540,-2.441
0.666,0.503,0.478,2.441,2.258,-2.075
0.661,0.500,0.475,3.906,1.099,-0.732
0.656,0.525,0.478,5.005,-0.122,0.671
0.658,0.530,0.481,8.179,-1.221,2.319
0.666,0.539,0.485,11.292,-1.953,3.723
0.661,0.556,0.492,11.047,-2.441,3.662
0.675,0.554,0.495,11.292,-2.563,2.869
0.663,0.547,0.497,11.169,-2.380,1.465
0.663,0.541,0.497,9.888,-2.075,0.427
0.660,0.536,0.496,8.240,-1.404,0.183
0.658,0.537,0.495,6.958,-0.793,0.183
0.653,0.530,0.493,7.263,0.122,0.061
0.651,0.516,0.487,7.812,0.977,-0.305
0.651,0.503,0.482,6.653,1.648,-1.160
0.648,0.491,0.469,7.324,1.343,-1.648

-0.737,1.554,0.749,-5.554,-310.608,140.381
-0.603,1.788,1.205,-56.946,-311.035,139.160
-0.497,2.129,1.799,-97.473,-302.002,136.841
-0.410,2.583,2.445,-131.042,-280.457,122.925
-0.328,2.991,3.033,-137.878,-241.333,87.463
-0.283,3.179,3.448,-116.028,-183.533,25.574
-0.269,3.050,3.601,-79.956,-110.413,-51.819
-0.232,2.719,3.387,-39.612,-28.503,-126.465
-0.344,2.340,2.951,-2.075,48.584,-183.167
-0.523,2.115,2.477,13.123,110.291,-222.961
-0.700,1.876,1.934,20.142,155.334,-253.357
-0.902,1.700,1.460,19.409,184.937,-279.907
-1.032,1.425,1.098,2.258,199.585,-306.946
-1.071,1.059,0.846,-12.756,200.928,-328.918
-0.977,0.708,0.717,-25.391,192.566,-338.501
-0.813,0.472,0.733,-31.311,178.589,-334.229
-0.662,0.364,0.866,-26.611,163.452,-317.322
-0.521,0.330,1.003,-14.160,153.870,-294.250
-0.418,0.355,1.088,-1.648,153.381,-271.606
-0.360,0.419,1.133,5.859,160.278,-253.052
-0.375,0.466,1.093,8.606,172.485,-240.112
-0.375,0.446,0.962,7.629,186.401,-234.070
-0.380,0.292,0.752,6.287,197.998,-232.178
-0.391,0.090,0.533,1.099,203.979,-229.553
-0.394,-0.089,0.340,-8.362,203.552,-222.107
-0.269,-0.219,0.164,-13.367,198.914,-209.717
-0.132,-0.347,-0.005,-7.202,188.904,-192.810
-0.010,-0.397,-0.115,-0.549,172.058,-173.340
0.062,-0.427,-0.178,14.709,151.428,-151.001
0.135,-0.425,-0.234,32.654,130.737,-126.770
0.191,-0.405,-0.250,44.983,111.084,-103.943
0.236,-0.361,-0.281,52.612,91.797,-83.008
0.289,-0.271,-0.282,54.932,73.547,-64.453
0.344,-0.173,-0.249,53.162,57.556,-49.011
0.394,-0.039,-0.177,44.434,43.396,-36.926
0.430,0.040,-0.099,37.231,31.311,-27.771
0.447,0.100,-0.006,33.630,20.935,-20.752
0.490,0.143,0.078,28.381,13.489,-15.198
0.508,0.166,0.155,24.292,8.606,-10.315
0.536,0.238,0.235,18.494,6.775,-6.409
0.568,0.282,0.269,17.151,7.141,-3.174
0.581,0.306,0.285,19.165,8.667,-1.038
0.589,0.305,0.276,20.508,10.254,-0.061
0.601,0.303,0.267,21.545,11.597,0.305
0.610,0.314,0.236,21.118,12.390,0.183
0.619,0.318,0.205,23.621,11.353,1.343
0.622,0.329,0.191,23.254,8.484,2.869
0.624,0.340,0.195,20.691,4.883,5.676
0.622,0.364,0.198,17.517,1.038,9.155
0.650,0.406,0.234,13.489,-2.930,13.123
0.671,0.455,0.290,11.292,-7.263,16.846
0.673,0.508,0.352,11.230,-10.925,19.409
0.693,0.562,0.415,13.733,-12.817,20.325
0.704,0.604,0.457,17.639,-12.756,20.020
0.707,0.632,0.474,23.071,-11.047,18.738
0.712,0.679,0.501,26.306,-8.362,16.541
0.696,0.704,0.474,26.794,-5.676,13.000
0.695,0.684,0.451,22.766,-3.723,8.362
0.705,0.660,0.443,13.672,-2.136,2.991
0.694,0.611,0.442,6.775,-1.343,-0.916
0.690,0.551,0.435,5.066,-0.671,-2.686
0.663,0.506,0.427,6.287,-0.610,-2.747
0.689,0.493,0.399,8.911,-2.075,-0.977
0.660,0.455,0.397,16.418,-5.432,1.770
0.659,0.473,0.436,16.663,-9.033,4.822
0.664,0.479,0.470,18.188,-11.597,7.935
0.673,0.510,0.500,19.409,-12.573,10.254
0.684,0.528,0.523,21.667,-12.390,11.169
0.687,0.555,0.529,23.193,-10.925,10.864
0.701,0.585,0.522,19.775,-8.240,9.888
0.708,0.585,0.517,15.686,-5.920,8.728
0.690,0.600,0.526,9.338,-4.761,6.897
0.688,0.601,0.523,3.418,-3.296,4.150
0.687,0.578,0.509,4.639,-1.587,1.404
0.673,0.552,0.489,6.104,-0.366,-0.610
0.662,0.524,0.475,7.629,-0.366,-1.038
0.646,0.507,0.467,7.996,-0.977,-0.244
0.648,0.496,0.464,7.568,-2.014,1.099
0.638,0.493,0.468,7.629,-3.357,2.258
0.640,0.484,0.474,9.094,-4.639,3.601
0.647,0.486,0.490,9.216,-5.676,4.883
0.658,0.514,0.508,9.949,-6.470,5.859
0.665,0.523,0.528,14.221,-6.165,6.836
0.664,0.536,0.529,16.968,-4.761,6.775
0.661,0.541,0.510,18.921,-2.991,5.798
0.669,0.533,0.479,19.531,-1.587,4.700
0.666,0.523,0.459,16.113,-1.282,3.723
0.662,0.524,0.461,10.925,-1.831,3.540
0.663,0.523,0.472,7.446,-2.075,4.395
0.661,0.541,0.474,6.409,-2.014,5.249
0.658,0.552,0.473,7.263,-1.953,5.859
0.652,0.551,0.463,10.376,-1.953,5.493
0.641,0.540,0.449,11.719,-2.563,4.578
0.655,0.543,0.441,11.719,-2.930,3.967
0.657,0.532,0.440,12.634,-4.272,3.906
0.650,0.520,0.443,12.634,-5.310,3.967
0.652,0.517,0.447,12.024,-5.493,4.028
0.661,0.513,0.456,11.536,-6.226,4.456
0.666,0.515,0.474,10.925,-7.080,4.578
0.673,0.515,0.500,10.315,-7.690,4.639
0.668,0.525,0.521,9.094,-7.629,4.639
0.660,0.542,0.533,7.446,-6.775,5.005
0.656,0.585,0.542,6.409,-5.554,6.104
0.653,0.600,0.535,9.949,-4.761,6.470
0.651,0.604,0.528,10.864,-4.333,5.676
0.652,0.595,0.533,8.972,-4.395,3.235
0.667,0.588,0.550,6.836,-5.127,1.404
0.661,0.570,0.562,6.836,-4.578,0.122
0.653,0.553,0.562,6.836,-3.662,0.061
0.656,0.543,0.555,6.958,-2.258,-0.610
0.660,0.545,0.545,6.165,-0.854,-0.366
0.657,0.544,0.540,7.874,-0.977,0.000
0.654,0.534,0.541,9.521,-0.549,-0.488
0.653,0.525,0.542,7.629,0.244,-1.099
0.653,0.509,0.540,7.141,0.488,-0.610
0.654,0.509,0.538,6.958,0.366,-0.122
0.654,0.520,0.543,6.714,1.160,0.427
0.652,0.534,0.546,7.141,1.831,1.465
0.651,0.542,0.538,8.789,2.563,1.831

-0.300,1.529,1.550,-26.184,-303.589,143.738
-0.226,1.954,1.930,-46.082,-280.701,144.043
-0.210,2.345,2.110,-53.162,-245.361,132.568
-0.240,2.699,2.160,-66.589,-205.139,99.426
-0.232,2.828,2.107,-76.050,-165.771,47.546
-0.282,2.702,2.001,-82.825,-131.653,-13.794
-0.347,2.337,1.930,-85.083,-103.638,-72.693
-0.391,1.949,1.877,-85.938,-80.322,-115.295
-0.451,1.665,1.882,-87.769,-58.716,-138.794
-0.467,1.471,1.869,-83.679,-35.889,-150.391
-0.448,1.390,1.930,-66.833,-14.526,-153.320
-0.403,1.459,2.093,-47.913,4.639,-153.809
-0.384,1.624,2.350,-27.710,28.320,-157.837
-0.342,1.798,2.546,-9.216,61.584,-171.021
-0.298,1.986,2.634,7.751,103.821,-193.604
-0.350,2.105,2.630,30.029,149.231,-223.022
-0.518,2.135,2.548,51.575,196.838,-258.118
-0.771,2.018,2.332,68.909,247.131,-296.448
-1.135,1.727,1.937,79.346,296.509,-332.397
-1.544,1.281,1.436,69.885,339.783,-361.084
-1.972,0.745,0.871,37.842,370.789,-378.235
-2.034,0.196,0.194,-20.386,385.742,-383.667
-1.692,-0.398,-0.479,-64.270,379.028,-377.869
-1.174,-0.922,-1.029,-71.411,346.741,-357.239
-0.715,-1.278,-1.307,-49.866,288.513,-317.871
-0.349,-1.472,-1.292,-14.709,216.187,-259.155
-0.041,-1.370,-1.057,15.320,144.165,-189.880
0.090,-1.103,-0.762,42.786,85.571,-125.244
0.200,-0.745,-0.468,63.721,46.631,-76.843
0.322,-0.437,-0.272,83.435,27.771,-48.889
0.359,-0.177,-0.122,92.285,19.958,-36.377
0.387,-0.014,0.007,85.754,18.433,-32.288
0.358,0.116,0.131,65.735,21.851,-32.532
0.333,0.115,0.176,45.105,28.076,-34.302
0.380,0.151,0.184,26.672,35.950,-36.255
0.444,0.028,0.102,26.367,40.955,-37.109
0.476,-0.012,0.075,21.790,40.588,-35.400
0.510,-0.043,0.051,19.958,36.499,-29.236
0.542,-0.021,0.041,22.766,31.189,-19.348
0.564,0.057,0.036,24.109,26.184,-8.911
0.586,0.135,0.022,27.893,21.545,-1.648
0.614,0.170,-0.003,35.461,16.235,2.930
0.650,0.219,-0.028,40.405,9.460,5.798
0.658,0.259,-0.024,40.710,1.465,8.545
0.657,0.312,0.024,32.288,-5.554,11.719
0.672,0.357,0.098,20.813,-10.559,15.381
0.696,0.392,0.165,13.977,-15.137,18.921
0.717,0.441,0.257,9.521,-18.860,21.667
0.716,0.498,0.343,11.536,-21.118,22.888
0.704,0.528,0.397,16.907,-20.996,22.461
0.716,0.555,0.429,18.921,-19.043,20.142
0.707,0.579,0.443,21.118,-15.747,17.029
0.742,0.571,0.419,27.649,-13.794,15.198
0.695,0.588,0.432,29.419,-12.695,13.367
0.692,0.586,0.412,24.719,-10.864,9.888
0.695,0.536,0.370,24.902,-9.216,6.714
0.691,0.490,0.373,20.325,-10.010,4.944
0.702,0.452,0.383,12.756,-12.939,5.249
0.695,0.438,0.447,5.493,-15.991,6.775
0.704,0.438,0.515,3.174,-17.578,8.850
0.715,0.441,0.585,5.981,-17.090,10.864
0.721,0.471,0.637,11.963,-14.709,12.207
0.710,0.509,0.652,18.921,-10.559,12.878
0.708,0.542,0.630,25.879,-5.737,12.512
0.731,0.550,0.578,30.823,-1.343,10.986
0.701,0.585,0.539,30.701,2.136,8.972
0.694,0.582,0.496,23.926,5.005,6.165
0.725,0.565,0.450,17.639,7.324,3.235
0.725,0.536,0.422,10.803,7.141,1.526
0.712,0.510,0.405,5.920,5.066,0.916
0.708,0.486,0.391,4.150,2.747,1.282
0.715,0.470,0.380,4.822,-0.488,2.441
0.716,0.475,0.384,7.141,-4.211,4.456
0.710,0.497,0.411,10.376,-7.324,6.836
0.699,0.534,0.454,14.343,-9.888,8.667
0.695,0.545,0.482,20.447,-11.292,9.094
0.685,0.547,0.486,27.039,-11.353,7.751
0.683,0.534,0.493,28.503,-10.925,5.798
0.691,0.522,0.512,23.254,-10.437,4.028
0.691,0.504,0.533,14.954,-8.911,3.296
0.701,0.492,0.547,6.958,-5.981,3.357
0.702,0.493,0.538,2.319,-2.869,3.723
0.694,0.495,0.503,2.258,0.244,4.028
0.690,0.496,0.457,6.104,2.014,4.150
0.680,0.479,0.407,10.193,1.709,3.723
0.672,0.463,0.379,11.597,-0.244,3.235
0.685,0.458,0.376,11.963,-3.357,3.845
0.667,0.455,0.387,13.489,-6.226,5.371
0.661,0.455,0.410,14.465,-9.094,6.958
0.662,0.459,0.433,15.259,-11.230,8.606
0.664,0.485,0.462,15.137,-13.062,10.010
0.665,0.496,0.502,15.442,-14.282,10.925
0.657,0.499,0.538,15.198,-14.587,10.681
0.664,0.505,0.566,13.550,-13.550,10.071
0.669,0.517,0.570,14.771,-11.536,10.193
0.662,0.538,0.558,15.564,-9.216,10.437
0.674,0.538,0.528,16.296,-6.531,10.925
0.677,0.575,0.508,13.184,-5.188,11.169
0.642,0.593,0.510,7.751,-4.211,8.850
0.658,0.565,0.494,7.751,-3.784,5.554
0.668,0.517,0.477,11.108,-3.967,3.113
0.647,0.496,0.484,12.085,-5.005,2.563
0.652,0.488,0.471,12.634,-5.554,3.174
0.650,0.481,0.457,13.794,-5.981,5.432
0.652,0.486,0.456,12.024,-7.507,7.202
0.651,0.487,0.473,10.071,-9.460,8.118
0.651,0.476,0.498,9.888,-10.986,8.179
0.655,0.478,0.529,11.230,-11.963,8.179
0.655,0.476,0.558,14.709,-11.780,8.484
0.661,0.486,0.577,19.165,-10.498,8.728
0.662,0.507,0.575,21.851,-8.667,8.850
0.657,0.523,0.563,20.996,-6.104,8.545
0.655,0.541,0.542,17.029,-4.089,7.324
0.641,0.542,0.522,13.489,-2.441,5.493
0.630,0.519,0.498,11.353,-1.709,3.662
0.628,0.496,0.480,9.277,-2.075,2.441
0.627,0.479,0.465,8.057,-3.418,2.441
0.630,0.461,0.457,8.118,-5.249,3.784
0.616,0.466,0.478,10.010,-7.507,6.287

-0.545,1.908,0.858,-73.425,-264.832,112.305
-0.501,2.027,1.247,-88.013,-264.648,93.567
-0.449,2.094,1.672,-84.839,-255.676,69.763
-0.405,2.088,2.071,-71.167,-235.901,39.917
-0.347,2.037,2.416,-57.373,-202.576,6.958
-0.312,1.973,2.617,-44.861,-156.738,-23.926
-0.285,1.945,2.665,-35.156,-104.187,-51.147
-0.277,1.924,2.596,-24.048,-49.622,-75.867
-0.308,1.981,2.506,-15.991,-0.183,-101.257
-0.404,2.076,2.411,-6.653,44.006,-127.502
-0.552,2.160,2.259,6.531,84.839,-157.898
-0.722,2.180,2.083,13.123,121.826,-195.251
-0.853,2.083,1.888,12.512,153.748,-236.206
-0.970,1.902,1.742,9.155,179.993,-275.208
-1.062,1.646,1.618,8.301,201.660,-308.105
-1.149,1.328,1.501,6.897,221.008,-332.275
-1.210,1.019,1.346,3.723,237.976,-346.619
-1.214,0.729,1.169,4.211,251.343,-350.342
-1.165,0.517,0.974,7.935,261.780,-346.008
-1.103,0.305,0.791,15.381,267.212,-334.778
-1.008,0.129,0.610,16.602,268.372,-319.275
-0.886,-0.050,0.397,12.878,264.771,-300.903
-0.760,-0.224,0.201,6.165,256.287,-279.968
-0.592,-0.389,0.015,0.366,243.896,-257.568
-0.417,-0.504,-0.134,-3.357,227.478,-233.337
-0.244,-0.590,-0.266,0.366,206.299,-206.299
-0.095,-0.682,-0.373,7.141,181.458,-177.917
0.046,-0.695,-0.427,10.864,153.809,-149.292
0.151,-0.685,-0.431,25.085,125.671,-119.934
0.224,-0.614,-0.398,43.091,98.511,-90.393
0.278,-0.476,-0.334,55.664,73.608,-61.646
0.307,-0.272,-0.252,59.631,53.467,-36.682
0.361,-0.053,-0.175,56.152,39.551,-18.188
0.401,0.146,-0.125,50.415,29.480,-7.202
0.460,0.235,-0.073,43.884,20.935,-3.418
0.495,0.288,0.004,32.349,13.062,-4.333
0.504,0.291,0.089,19.775,8.728,-8.057
0.526,0.234,0.114,14.832,8.118,-10.437
0.556,0.250,0.149,8.057,9.155,-10.254
0.590,0.212,0.142,10.254,9.277,-6.226
0.587,0.246,0.169,14.648,6.653,-0.610
0.594,0.316,0.208,15.137,3.906,4.272
0.597,0.371,0.217,20.569,2.747,7.507
0.594,0.387,0.205,26.489,1.831,9.216
0.591,0.410,0.201,27.283,-0.366,10.193
0.615,0.443,0.224,24.597,-3.723,12.085
0.621,0.478,0.279,21.057,-7.080,14.465
0.601,0.526,0.345,19.409,-9.766,16.418
0.628,0.580,0.384,19.043,-10.315,17.578
0.637,0.592,0.389,19.409,-9.827,16.418
0.654,0.596,0.396,17.456,-9.033,13.184
0.661,0.577,0.396,16.113,-8.606,10.315
0.665,0.560,0.404,15.564,-8.118,8.972
0.666,0.579,0.403,15.625,-7.874,9.033
0.675,0.602,0.424,14.038,-7.568,10.132
0.672,0.631,0.455,10.986,-7.751,10.315
0.663,0.645,0.492,7.080,-7.141,9.094
0.671,0.664,0.500,6.653,-5.920,6.836
0.651,0.630,0.478,9.216,-4.822,5.127
0.662,0.644,0.484,5.920,-4.456,3.906
0.649,0.609,0.471,8.057,-5.310,3.540
0.635,0.603,0.503,9.460,-7.141,3.113
0.644,0.580,0.520,12.329,-7.202,2.808
0.656,0.554,0.503,19.653,-7.141,2.991
0.674,0.540,0.492,21.973,-6.958,2.869
0.667,0.534,0.506,18.188,-7.202,2.563
0.657,0.528,0.533,10.986,-6.714,3.052
0.665,0.540,0.549,6.653,-5.005,4.517
0.666,0.535,0.534,9.094,-2.808,5.554
0.685,0.561,0.517,13.794,-1.892,6.226
0.674,0.580,0.509,16.235,-1.831,6.897
0.668,0.605,0.513,12.085,-1.709,6.958
0.664,0.644,0.521,6.042,-0.916,6.714
0.649,0.672,0.526,6.226,-0.061,5.920
0.637,0.646,0.506,12.817,1.160,4.150
0.634,0.611,0.490,14.648,1.465,0.610
0.632,0.558,0.484,13.123,0.732,-2.319
0.630,0.499,0.494,12.268,-0.305,-3.052
0.634,0.469,0.492,12.146,-1.465,-2.014
0.626,0.488,0.474,11.230,-1.831,1.648
0.630,0.532,0.464,9.338,-2.014,5.737
0.640,0.558,0.468,8.911,-2.502,7.202
0.654,0.572,0.482,8.728,-3.113,6.287
0.647,0.564,0.493,8.423,-3.784,3.784
0.646,0.553,0.500,6.592,-3.784,2.075
0.642,0.592,0.510,2.625,-2.869,2.014
0.625,0.599,0.512,4.639,-1.099,2.747
0.630,0.577,0.495,8.057,0.488,3.113
0.632,0.562,0.490,7.202,1.099,1.343
0.633,0.539,0.493,7.507,0.244,-0.183
0.623,0.516,0.495,9.827,-0.793,0.183
0.613,0.515,0.491,12.268,-1.465,1.770
0.623,0.511,0.478,13.611,-1.587,4.150
0.631,0.520,0.475,12.573,-2.319,5.615
0.633,0.540,0.477,11.963,-3.235,6.042
0.636,0.564,0.480,14.404,-3.601,6.165
0.644,0.583,0.464,18.921,-3.235,6.409
0.646,0.585,0.448,20.203,-2.747,5.981
0.645,0.591,0.456,14.282,-2.625,3.601
0.647,0.572,0.473,8.362,-3.052,1.404
0.641,0.546,0.495,5.310,-3.479,0.183
0.640,0.529,0.507,4.761,-3.601,0.671
0.637,0.531,0.510,5.920,-3.357,2.747
0.630,0.560,0.500,5.432,-2.808,5.249
0.630,0.598,0.484,2.808,-2.197,7.263
0.627,0.620,0.479,-2.808,-2.075,7.935
0.616,0.679,0.498,-8.728,-2.991,6.531
0.631,0.605,0.499,0.610,-3.540,5.310
0.611,0.602,0.520,10.315,-4.333,5.066
0.601,0.616,0.545,8.972,-3.662,2.441
0.622,0.590,0.522,11.902,-1.526,-0.549
0.627,0.590,0.514,13.245,-0.244,-1.831
0.615,0.587,0.510,14.465,-0.122,-2.014
0.609,0.573,0.502,16.235,0.427,-2.197
0.620,0.555,0.493,16.296,0.854,-2.808
0.629,0.531,0.482,18.188,0.427,-2.991
0.631,0.513,0.477,19.226,-0.549,-2.258
0.626,0.521,0.478,18.127,-1.404,-0.549
0.619,0.529,0.470,15.869,-1.587,1.709

-0.659,2.064,0.908,-64.148,-312.866,148.132
-0.540,2.267,1.414,-87.524,-310.059,131.653
-0.451,2.505,2.013,-93.384,-297.913,110.779
-0.386,2.743,2.605,-86.426,-271.729,79.041
-0.363,2.895,3.132,-73.730,-225.891,32.593
-0.297,2.963,3.457,-64.026,-162.109,-21.973
-0.327,2.970,3.476,-52.002,-85.754,-80.139
-0.384,2.851,3.217,-36.133,-6.348,-138.916
-0.561,2.622,2.858,-23.071,63.293,-196.838
-0.813,2.297,2.474,-14.465,118.103,-249.634
-0.989,1.941,2.127,-15.442,161.560,-295.044
-1.098,1.584,1.823,-17.395,195.801,-330.017
-1.201,1.231,1.595,-9.827,220.886,-353.210
-1.237,0.941,1.439,-3.845,238.220,-364.197
-1.227,0.706,1.296,1.282,251.160,-364.441
-1.190,0.543,1.137,9.338,262.451,-356.506
-1.144,0.396,0.957,16.296,271.423,-344.299
-1.108,0.241,0.746,15.015,276.672,-330.688
-1.072,0.056,0.519,1.221,276.367,-315.674
-0.942,-0.106,0.290,-21.118,270.142,-298.218
-0.791,-0.258,0.074,-35.889,258.728,-278.076
-0.597,-0.394,-0.093,-37.415,240.662,-255.127
-0.392,-0.544,-0.214,-24.841,216.003,-229.980
-0.193,-0.662,-0.294,-4.822,186.523,-202.637
-0.023,-0.689,-0.320,18.127,156.616,-172.729
0.127,-0.652,-0.315,43.945,128.296,-141.235
0.214,-0.569,-0.306,65.430,103.210,-110.413
0.250,-0.428,-0.282,75.623,82.581,-82.520
0.279,-0.263,-0.248,69.153,67.505,-60.486
0.319,-0.108,-0.211,51.697,57.190,-46.326
0.371,-0.041,-0.191,39.001,48.096,-38.208
0.426,-0.013,-0.153,30.334,37.415,-33.325
0.454,0.008,-0.073,22.827,25.818,-29.236
0.497,0.025,0.015,23.193,15.930,-23.621
0.500,0.044,0.092,27.344,9.583,-16.418
0.527,0.088,0.149,30.762,6.775,-8.850
0.575,0.173,0.178,34.119,6.042,-2.258
0.592,0.249,0.182,40.405,5.798,3.296
0.588,0.301,0.167,45.288,5.493,6.714
0.594,0.334,0.162,42.419,4.639,7.874
0.599,0.372,0.178,32.471,2.808,8.057
0.610,0.418,0.194,22.461,0.549,9.277
0.629,0.445,0.210,16.968,-1.892,10.925
0.646,0.478,0.230,12.390,-4.578,12.329
0.638,0.502,0.255,10.010,-7.385,12.878
0.639,0.517,0.285,10.132,-10.254,13.062
0.650,0.527,0.317,13.489,-13.245,13.611
0.645,0.532,0.352,18.250,-15.564,14.160
0.668,0.533,0.394,22.095,-17.029,14.954
0.663,0.555,0.438,23.376,-17.395,15.686
0.672,0.576,0.446,24.902,-16.785,16.052
0.686,0.588,0.463,26.245,-15.442,16.479
0.678,0.606,0.476,19.836,-13.550,15.259
0.688,0.616,0.491,10.864,-10.620,12.390
0.691,0.627,0.494,4.761,-7.935,10.010
0.690,0.627,0.489,3.296,-6.042,8.240
0.675,0.620,0.481,4.700,-4.761,6.958
0.668,0.600,0.464,4.883,-4.333,5.310
0.674,0.598,0.480,4.089,-4.639,3.784
0.668,0.574,0.467,7.019,-5.676,3.662
0.665,0.596,0.510,8.362,-6.653,4.395
0.669,0.577,0.493,13.000,-7.019,5.005
0.653,0.583,0.511,15.076,-7.751,5.127
0.667,0.583,0.526,14.282,-7.874,5.188
0.668,0.577,0.530,13.062,-6.836,5.432
0.671,0.601,0.538,10.254,-5.493,5.493
0.666,0.601,0.539,9.644,-4.150,4.944
0.666,0.594,0.536,8.362,-2.258,3.296
0.668,0.578,0.519,6.836,0.244,1.465
0.670,0.554,0.494,6.714,1.892,0.366
0.673,0.538,0.475,6.897,2.258,0.183
0.658,0.528,0.461,9.094,1.831,0.916
0.650,0.527,0.448,10.986,1.282,2.441
0.653,0.542,0.439,11.108,0.305,4.272
0.646,0.575,0.446,11.292,-1.099,5.798
0.639,0.599,0.456,13.916,-2.380,6.470
0.651,0.608,0.464,15.442,-3.235,5.676
0.657,0.605,0.478,13.977,-3.723,4.028
0.656,0.591,0.502,11.169,-3.723,2.136
0.652,0.558,0.519,9.583,-3.174,0.549
0.654,0.540,0.525,7.996,-1.953,0.122
0.654,0.537,0.519,7.812,-0.427,0.793
0.643,0.543,0.500,9.644,1.038,2.258
0.640,0.554,0.473,10.376,2.502,3.479
0.644,0.564,0.451,8.972,2.991,3.723
0.640,0.561,0.437,9.338,2.258,3.235
0.639,0.554,0.431,10.193,0.977,2.808
0.646,0.551,0.444,10.071,-0.488,2.808
0.651,0.563,0.469,8.118,-1.770,2.869
0.646,0.574,0.491,7.080,-1.831,3.174
0.642,0.565,0.497,7.385,-0.916,3.235
0.641,0.574,0.492,7.812,0.305,2.625
0.644,0.572,0.472,12.207,1.404,2.502
0.636,0.560,0.434,20.020,1.709,2.869
0.641,0.572,0.403,21.301,1.465,2.991
0.648,0.577,0.401,15.442,0.183,2.869
0.648,0.572,0.432,6.714,-1.648,2.075
0.651,0.551,0.466,1.648,-2.991,0.977
0.650,0.519,0.482,1.465,-3.052,0.732
0.651,0.493,0.477,2.808,-2.991,1.221
0.653,0.540,0.480,4.333,-2.502,2.930
0.640,0.553,0.459,13.733,-2.197,5.920
0.642,0.596,0.431,20.996,-2.075,7.935
0.660,0.616,0.431,19.714,-2.991,7.874
0.649,0.624,0.464,14.282,-4.883,5.371
0.639,0.612,0.511,9.155,-6.042,2.747
0.638,0.611,0.543,8.301,-5.798,1.465
0.635,0.612,0.552,12.695,-4.578,1.587
0.630,0.610,0.541,17.273,-2.869,1.770
0.630,0.608,0.523,16.541,-1.160,1.343
0.633,0.597,0.525,11.536,-0.183,-0.244
0.644,0.575,0.534,5.798,0.549,-2.014
0.644,0.536,0.530,4.333,1.526,-2.991
0.647,0.531,0.511,4.150,2.502,-2.930
0.643,0.528,0.474,6.042,3.723,-1.648
0.637,0.538,0.433,7.751,3.967,-0.488
0.638,0.550,0.411,8.118,2.869,0.244
0.642,0.551,0.410,8.667,0.549,0.244
0.642,0.543,0.429,8.362,-2.136,-0.305

-0.433,1.633,0.975,-57.068,-266.968,125.488
-0.370,1.797,1.172,-68.176,-260.315,116.943
-0.284,1.996,1.421,-68.909,-250.854,100.586
-0.208,2.139,1.721,-62.256,-237.610,75.867
-0.172,2.275,2.012,-49.805,-216.248,43.884
-0.144,2.357,2.242,-36.499,-183.838,7.385
-0.149,2.366,2.350,-32.593,-142.517,-31.982
-0.149,2.366,2.360,-37.720,-97.168,-71.411
-0.200,2.313,2.288,-44.617,-52.246,-109.680
-0.316,2.272,2.269,-50.049,-12.695,-146.484
-0.410,2.200,2.324,-50.049,22.339,-182.434
-0.549,2.104,2.380,-44.800,58.411,-218.445
-0.609,1.943,2.372,-34.302,97.839,-252.197
-0.718,1.756,2.307,-14.343,137.085,-280.701
-0.821,1.583,2.218,7.690,175.415,-302.856
-0.957,1.414,2.069,30.640,213.684,-319.275
-1.063,1.262,1.820,51.025,250.427,-330.078
-1.145,1.108,1.503,66.650,282.776,-336.182
-1.255,0.933,1.140,73.975,307.312,-339.294
-1.364,0.706,0.815,67.444,322.815,-339.844
-1.400,0.430,0.441,47.852,329.712,-337.280
-1.317,0.118,0.068,15.259,328.064,-329.468
-1.121,-0.151,-0.312,-16.724,315.613,-315.613
-0.842,-0.446,-0.630,-32.776,289.429,-296.570
-0.533,-0.720,-0.820,-33.264,249.207,-272.156
-0.255,-0.975,-0.850,-19.653,199.524,-240.479
-0.019,-1.048,-0.734,-2.136,146.301,-199.951
0.138,-1.035,-0.533,25.146,98.145,-153.931
0.225,-0.892,-0.351,55.786,60.486,-108.459
0.282,-0.677,-0.208,77.576,36.682,-68.298
0.345,-0.411,-0.106,84.045,25.269,-38.086
0.377,-0.204,-0.037,78.613,21.240,-19.470
0.401,-0.031,0.017,63.477,19.409,-8.850
0.426,0.091,0.090,39.734,19.226,-4.822
0.430,0.148,0.142,21.179,20.691,-6.287
0.479,0.145,0.172,7.629,22.766,-10.315
0.498,0.111,0.183,2.075,24.719,-14.771
0.515,0.073,0.150,7.385,25.818,-15.747
0.537,0.058,0.094,17.639,25.208,-10.620
0.547,0.107,0.036,24.536,22.156,-2.258
0.549,0.200,-0.004,30.762,16.724,6.897
0.576,0.301,-0.030,36.316,8.850,14.587
0.586,0.376,-0.021,37.720,-0.610,19.165
0.626,0.438,0.035,31.433,-9.583,20.630
0.641,0.458,0.108,22.644,-17.761,20.691
0.653,0.478,0.191,12.634,-23.010,20.386
0.678,0.491,0.283,4.822,-25.635,20.325
0.705,0.503,0.383,3.357,-27.039,19.836
0.711,0.518,0.494,8.362,-26.733,19.226
0.709,0.556,0.568,15.503,-23.560,18.005
0.695,0.586,0.594,23.376,-17.151,16.602
0.688,0.586,0.564,28.687,-8.667,13.855
0.694,0.555,0.504,31.189,-2.319,10.986
0.667,0.536,0.454,34.058,0.732,9.766
0.657,0.548,0.400,31.860,1.465,9.094
0.653,0.533,0.351,27.771,0.671,8.545
0.674,0.534,0.347,16.052,-2.075,8.789
0.681,0.525,0.379,5.310,-5.188,8.728
0.709,0.531,0.438,1.160,-8.118,8.789
0.713,0.506,0.481,4.700,-10.010,8.789
0.717,0.537,0.535,6.836,-9.399,8.911
0.709,0.532,0.498,16.602,-7.874,9.094
0.700,0.551,0.504,22.827,-7.507,9.399
0.690,0.573,0.497,26.917,-6.958,9.216
0.679,0.574,0.476,30.884,-6.897,8.911
0.677,0.582,0.460,27.954,-6.653,8.240
0.669,0.579,0.466,20.874,-6.775,7.812
0.675,0.573,0.493,9.216,-6.592,6.958
0.686,0.560,0.516,1.221,-5.737,5.981
0.683,0.522,0.514,0.732,-4.456,5.188
0.687,0.504,0.505,2.991,-3.418,4.822
0.689,0.523,0.490,7.202,-2.991,5.249
0.681,0.532,0.470,12.451,-2.930,6.287
0.684,0.543,0.454,14.221,-2.869,6.348
0.685,0.557,0.444,13.367,-3.296,5.493
0.682,0.558,0.434,16.357,-4.211,4.578
0.681,0.544,0.418,22.217,-5.127,3.784
0.679,0.538,0.413,22.278,-6.409,3.601
0.683,0.534,0.434,16.724,-8.484,4.272
0.680,0.535,0.479,7.690,-9.766,4.883
0.678,0.560,0.511,1.587,-9.949,5.676
0.683,0.559,0.523,3.174,-9.399,6.104
0.677,0.560,0.530,3.723,-8.484,5.371
0.675,0.558,0.540,3.052,-8.240,3.845
0.672,0.554,0.548,3.540,-7.202,2.869
0.671,0.552,0.545,6.470,-5.981,2.625
0.672,0.549,0.533,10.803,-4.395,2.808
0.668,0.537,0.513,14.404,-3.418,2.686
0.661,0.528,0.501,14.526,-3.174,1.770
0.654,0.516,0.495,13.977,-3.296,0.977
0.646,0.507,0.490,14.099,-3.845,1.038
0.642,0.527,0.486,13.306,-4.333,1.709
0.633,0.527,0.479,12.939,-4.700,3.235
0.644,0.528,0.483,10.315,-4.517,3.723
0.645,0.529,0.503,6.592,-5.310,3.174
0.658,0.508,0.523,6.042,-5.798,2.625
0.652,0.506,0.534,7.690,-5.737,2.441
0.648,0.517,0.536,9.705,-5.432,2.930
0.651,0.536,0.530,11.963,-4.639,3.784
0.657,0.548,0.535,11.292,-3.845,3.723
0.657,0.542,0.546,9.033,-2.991,1.648
0.655,0.517,0.550,8.789,-2.258,-0.427
0.655,0.490,0.544,10.254,-1.404,-1.282
0.648,0.501,0.534,11.841,-0.732,-0.305
0.635,0.508,0.512,16.052,0.000,1.892
0.636,0.525,0.486,19.287,0.244,3.662
0.642,0.542,0.486,15.015,-0.244,3.601
0.635,0.538,0.505,10.620,-1.404,2.136
0.648,0.505,0.516,10.742,-2.258,0.977
0.639,0.478,0.519,10.437,-1.831,0.732
0.634,0.490,0.505,9.644,-0.854,1.831
0.635,0.503,0.480,12.512,-0.244,4.333
0.633,0.517,0.461,14.160,-0.366,5.920
0.632,0.526,0.470,10.681,-1.404,5.493
0.646,0.518,0.499,8.057,-3.052,3.784
0.654,0.502,0.526,8.057,-4.150,2.747
0.659,0.497,0.535,10.498,-3.906,3.113
0.662,0.542,0.527,12.207,-2.747,5.005
0.655,0.572,0.503,16.602,-1.709,6.531

-0.459,1.708,0.855,12.451,-252.014,138.367
-0.463,1.862,0.989,-15.991,-249.573,123.047
-0.405,2.044,1.062,-49.866,-242.371,106.140
-0.355,2.187,1.137,-74.951,-234.009,82.458
-0.320,2.211,1.324,-89.417,-226.318,51.636
-0.259,2.224,1.629,-95.032,-218.140,17.578
-0.248,2.185,1.975,-90.088,-202.576,-15.198
-0.250,2.111,2.266,-75.317,-175.354,-46.814
-0.230,2.055,2.426,-61.951,-136.230,-76.843
-0.266,1.960,2.372,-50.110,-90.820,-104.126
-0.303,1.868,2.238,-41.321,-46.021,-129.211
-0.352,1.830,2.089,-36.194,-7.263,-151.428
-0.406,1.880,2.020,-32.166,24.292,-173.218
-0.455,1.898,1.996,-25.330,51.575,-197.937
-0.510,1.888,2.011,-22.339,79.590,-226.929
-0.570,1.812,1.994,-20.081,108.948,-257.202
-0.655,1.579,1.974,-15.015,138.977,-286.377
-0.768,1.367,1.911,-7.874,168.396,-310.669
-0.878,1.127,1.813,3.967,198.242,-326.660
-0.961,0.916,1.620,17.944,227.783,-334.229
-1.037,0.698,1.327,29.724,254.761,-334.534
-1.146,0.432,0.994,34.912,275.696,-329.895
-1.203,0.216,0.642,22.461,287.781,-321.167
-1.121,-0.028,0.259,3.418,291.138,-308.350
-0.895,-0.215,-0.097,-10.986,283.752,-290.344
-0.645,-0.436,-0.334,-18.616,263.733,-268.127
-0.440,-0.595,-0.445,-26.672,233.032,-243.652
-0.262,-0.733,-0.448,-19.653,197.021,-214.661
-0.099,-0.818,-0.416,-1.038,161.743,-181.030
0.024,-0.779,-0.337,20.264,130.859,-145.874
0.162,-0.637,-0.290,48.340,106.140,-111.572
0.282,-0.458,-0.290,77.271,85.815,-81.238
0.314,-0.269,-0.276,89.722,69.397,-58.228
0.330,-0.085,-0.242,78.064,56.091,-44.250
0.353,0.033,-0.209,56.152,44.800,-35.889
0.396,0.074,-0.157,33.447,35.034,-30.701
0.445,0.073,-0.071,12.939,25.879,-27.283
0.474,0.044,0.023,0.610,18.127,-24.170
0.490,0.024,0.104,1.831,13.123,-20.203
0.513,-0.008,0.128,13.489,10.132,-13.977
0.542,-0.003,0.120,24.658,8.118,-6.531
0.579,0.048,0.111,33.630,5.188,1.465
0.614,0.141,0.104,41.687,0.977,10.132
0.612,0.261,0.086,47.668,-3.662,17.700
0.621,0.395,0.090,44.922,-7.019,22.949
0.632,0.503,0.118,33.752,-10.315,25.085
0.639,0.555,0.173,20.447,-13.184,24.536
0.644,0.582,0.242,6.531,-15.259,21.851
0.646,0.571,0.314,-1.465,-16.785,18.066
0.668,0.542,0.377,-1.404,-17.639,15.137
0.672,0.519,0.412,4.639,-17.639,13.306
0.678,0.505,0.446,13.000,-17.151,13.245
0.672,0.537,0.468,20.386,-15.564,14.954
0.671,0.587,0.472,28.442,-13.245,17.090
0.651,0.618,0.446,37.170,-10.925,17.761
0.655,0.637,0.420,37.415,-9.094,15.808
0.677,0.615,0.407,31.921,-8.423,13.123
0.670,0.595,0.427,22.827,-9.277,11.475
0.663,0.602,0.495,6.409,-9.338,10.132
0.687,0.581,0.528,-2.930,-7.141,7.996
0.693,0.552,0.535,-2.258,-4.639,5.920
0.695,0.535,0.521,2.502,-2.747,4.700
0.694,0.533,0.497,9.705,-0.916,4.944
0.695,0.534,0.458,16.541,-0.244,6.042
0.683,0.557,0.454,21.118,-1.221,7.507
0.677,0.578,0.453,25.085,-2.258,8.789
0.673,0.598,0.443,28.076,-3.235,9.338
0.669,0.623,0.445,26.062,-3.967,9.521
0.671,0.634,0.460,20.508,-4.517,9.216
0.673,0.640,0.487,11.169,-4.639,8.057
0.680,0.634,0.508,2.441,-3.845,6.592
0.691,0.622,0.514,-1.099,-2.197,4.639
0.695,0.587,0.503,1.160,-0.305,2.380
0.692,0.554,0.478,5.859,1.526,0.610
0.690,0.542,0.441,10.925,2.930,0.183
0.674,0.543,0.400,15.320,3.357,1.099
0.687,0.542,0.377,17.029,2.502,1.892
0.660,0.554,0.372,15.625,0.732,2.136
0.646,0.558,0.383,13.733,-1.770,2.563
0.639,0.545,0.394,12.939,-3.784,3.052
0.639,0.541,0.427,9.766,-5.615,3.662
0.644,0.546,0.470,6.775,-7.141,4.700
0.643,0.553,0.500,6.958,-7.507,6.226
0.655,0.565,0.507,7.629,-6.531,7.324
0.665,0.579,0.503,6.836,-5.249,7.568
0.666,0.590,0.497,6.348,-4.028,7.141
0.669,0.591,0.485,7.080,-3.113,6.348
0.674,0.582,0.472,9.521,-2.686,5.249
0.669,0.575,0.458,12.146,-2.197,4.395
0.664,0.578,0.447,13.367,-2.197,4.333
0.664,0.591,0.441,12.756,-2.625,5.005
0.664,0.598,0.446,12.451,-3.052,5.798
0.660,0.608,0.466,10.986,-3.784,5.615
0.651,0.621,0.485,10.925,-4.211,4.944
0.647,0.613,0.499,12.207,-4.028,4.211
0.649,0.608,0.507,12.756,-3.479,3.174
0.645,0.601,0.513,12.451,-2.930,2.136
0.633,0.592,0.509,12.878,-1.770,1.709
0.646,0.593,0.501,12.024,-0.488,1.526
0.643,0.585,0.484,12.024,0.244,1.221
0.650,0.570,0.469,11.047,0.488,0.427
0.651,0.557,0.457,11.475,0.366,-0.061
0.647,0.546,0.447,11.414,0.244,-0.427
0.645,0.531,0.437,11.841,-0.427,-0.549
0.640,0.530,0.441,10.010,-1.648,0.061
0.637,0.542,0.453,7.202,-2.563,1.465
0.633,0.556,0.468,5.798,-2.686,2.747
0.633,0.568,0.479,5.432,-2.319,3.174
0.633,0.576,0.484,6.531,-1.831,2.869
0.631,0.573,0.483,9.155,-1.648,2.502
0.636,0.568,0.480,10.376,-1.404,1.770
0.638,0.558,0.479,11.353,-1.221,1.160
0.634,0.552,0.476,13.184,-1.343,0.732
0.632,0.537,0.468,16.174,-1.343,0.671
0.633,0.527,0.452,18.433,-1.404,0.977
0.634,0.529,0.437,18.738,-1.831,1.953
0.631,0.530,0.426,17.334,-2.441,2.686
0.630,0.536,0.426,13.123,-3.357,3.723
0.635,0.537,0.435,8.545,-4.150,4.456

-0.542,1.610,0.987,-44.556,-277.893,123.901
-0.471,1.704,1.476,-56.702,-275.208,107.544
-0.344,1.845,1.870,-69.580,-257.568,89.905
-0.245,2.026,2.151,-76.355,-228.333,69.946
-0.212,2.155,2.297,-75.195,-191.162,42.664
-0.198,2.270,2.304,-72.815,-150.879,7.507
-0.199,2.239,2.125,-69.031,-111.206,-31.189
-0.245,2.139,1.920,-71.533,-77.271,-70.190
-0.327,2.006,1.690,-84.839,-52.368,-104.065
-0.385,1.851,1.513,-103.638,-35.583,-131.226
-0.425,1.743,1.386,-120.728,-25.024,-153.564
-0.441,1.551,1.302,-121.826,-20.264,-171.631
-0.438,1.392,1.416,-112.671,-20.203,-185.120
-0.417,1.320,1.656,-101.990,-17.944,-192.749
-0.317,1.294,1.911,-84.473,-6.897,-196.594
-0.280,1.349,2.154,-67.017,13.123,-202.332
-0.229,1.404,2.331,-47.180,42.358,-212.341
-0.243,1.463,2.396,-22.827,78.857,-226.929
-0.360,1.468,2.380,4.639,120.239,-245.178
-0.577,1.388,2.203,31.189,165.039,-265.869
-0.729,1.213,1.827,52.124,209.229,-284.607
-0.920,0.955,1.468,58.716,245.728,-298.767
-1.059,0.724,1.119,46.387,271.729,-308.472
-1.115,0.401,0.742,30.334,290.039,-310.730
-1.079,0.115,0.374,9.338,296.570,-304.871
-0.946,-0.195,0.033,-6.653,291.077,-291.687
-0.754,-0.454,-0.249,-16.235,273.682,-272.278
-0.555,-0.605,-0.443,-17.395,247.314,-247.253
-0.341,-0.706,-0.574,0.427,214.905,-216.431
-0.170,-0.747,-0.599,20.508,177.856,-182.739
-0.037,-0.719,-0.566,35.583,142.334,-149.414
0.068,-0.646,-0.511,47.607,111.877,-118.896
0.198,-0.560,-0.455,57.190,85.327,-91.370
0.334,-0.462,-0.332,63.293,62.927,-67.078
0.378,-0.323,-0.186,59.143,46.509,-48.096
0.380,-0.135,-0.016,52.246,37.415,-33.813
0.422,0.035,0.022,51.208,36.072,-24.658
0.456,0.109,0.000,57.861,36.377,-19.531
0.470,0.180,0.013,51.880,34.729,-18.555
0.482,0.203,0.028,40.588,31.738,-18.738
0.505,0.176,0.048,30.640,28.320,-17.456
0.522,0.134,0.071,21.790,25.269,-14.465
0.540,0.116,0.080,15.747,21.423,-10.498
0.575,0.121,0.069,17.029,16.602,-4.517
0.592,0.139,0.047,23.010,10.986,1.892
0.613,0.208,0.037,27.832,4.333,8.728
0.626,0.289,0.057,29.724,-2.808,14.526
0.656,0.364,0.098,30.151,-9.705,18.921
0.670,0.437,0.164,25.452,-15.686,21.301
0.675,0.489,0.243,18.555,-19.348,21.790
0.682,0.531,0.324,12.451,-21.545,21.790
0.694,0.560,0.390,9.155,-21.912,21.790
0.693,0.596,0.454,9.521,-21.301,20.569
0.686,0.608,0.493,13.672,-19.897,18.433
0.684,0.603,0.508,17.822,-17.944,16.113
0.685,0.603,0.514,20.630,-15.625,13.916
0.705,0.593,0.506,22.217,-13.489,12.512
0.715,0.586,0.524,21.057,-12.512,11.108
0.716,0.582,0.551,19.470,-11.841,9.888
0.716,0.548,0.558,20.630,-9.521,8.789
0.727,0.542,0.552,20.508,-7.141,7.812
0.713,0.553,0.562,15.930,-5.310,7.446
0.707,0.559,0.549,13.367,-3.235,6.287
0.704,0.555,0.531,11.353,-1.038,5.127
0.697,0.549,0.518,10.803,0.427,3.662
0.689,0.543,0.500,12.939,1.099,3.052
0.691,0.516,0.476,14.954,1.099,2.930
0.681,0.517,0.445,15.198,0.793,3.235
0.679,0.532,0.429,14.709,-0.427,4.517
0.672,0.539,0.431,13.611,-2.441,5.554
0.670,0.541,0.455,9.460,-4.211,5.249
0.686,0.532,0.480,6.714,-5.188,4.395
0.690,0.512,0.490,8.362,-5.493,3.967
0.707,0.499,0.504,10.986,-5.249,4.089
0.706,0.491,0.513,14.099,-4.517,4.639
0.704,0.486,0.512,15.991,-3.418,4.883
0.699,0.472,0.498,17.639,-2.197,5.005
0.711,0.478,0.476,20.447,-1.831,5.371
0.699,0.497,0.451,24.414,-1.892,6.165
0.682,0.517,0.429,25.635,-2.686,7.568
0.696,0.552,0.428,20.935,-3.479,8.606
0.687,0.560,0.442,15.564,-4.395,8.728
0.686,0.569,0.463,10.925,-5.371,7.629
0.694,0.586,0.485,8.667,-5.981,6.531
0.688,0.592,0.503,9.216,-6.104,5.554
0.678,0.588,0.518,9.827,-5.554,4.761
0.681,0.574,0.522,8.301,-4.272,3.052
0.672,0.565,0.531,6.836,-3.601,1.526
0.656,0.560,0.541,8.362,-2.991,0.732
0.644,0.545,0.547,12.695,-2.197,0.122
0.646,0.515,0.542,15.747,-1.770,-0.244
0.641,0.487,0.536,16.479,-1.404,-0.061
0.659,0.484,0.528,16.479,-1.282,0.732
0.656,0.506,0.508,16.113,-1.465,2.930
0.655,0.526,0.492,16.724,-2.014,4.639
0.664,0.541,0.483,14.038,-2.014,4.761
0.667,0.541,0.482,11.841,-3.052,4.211
0.673,0.542,0.485,11.719,-4.089,3.174
0.672,0.552,0.490,11.353,-3.906,2.991
0.667,0.565,0.491,8.972,-3.052,3.174
0.665,0.566,0.494,8.057,-2.075,2.869
0.671,0.547,0.501,6.714,-1.648,1.526
0.668,0.526,0.510,6.653,-2.136,-0.183
0.656,0.499,0.513,10.864,-2.747,-1.343
0.652,0.481,0.510,14.526,-2.686,-1.282
0.643,0.469,0.501,14.893,-2.625,-0.061
0.638,0.470,0.500,14.038,-2.625,1.770
0.653,0.489,0.509,12.512,-2.930,2.930
0.654,0.508,0.522,13.000,-3.662,3.662
0.656,0.530,0.533,12.390,-2.930,3.967
0.659,0.526,0.531,11.292,-1.282,3.906
0.666,0.526,0.521,8.972,-0.122,3.113
0.658,0.531,0.508,7.324,0.732,2.380
0.659,0.527,0.500,8.118,0.122,1.709
0.655,0.530,0.501,7.568,-0.549,0.671
0.651,0.513,0.506,7.996,-1.648,0.122
0.647,0.493,0.514,8.118,-1.709,-0.183
0.644,0.484,0.521,7.202,-2.563,0.305
0.647,0.490,0.529,6.470,-2.319,1.709

-0.452,1.709,1.021,16.968,-268.921,149.719
-0.412,1.893,1.444,9.583,-264.465,130.493
-0.322,2.119,1.748,-15.076,-243.591,110.596
-0.247,2.342,1.925,-43.213,-212.585,86.670
-0.231,2.549,2.014,-66.223,-179.687,54.077
-0.250,2.631,2.022,-77.698,-148.682,12.268
-0.225,2.557,1.989,-81.970,-120.789,-34.729
-0.257,2.338,1.978,-81.177,-95.337,-80.627
-0.278,2.060,1.940,-80.750,-70.923,-117.554
-0.347,1.798,1.880,-81.116,-46.082,-143.433
-0.371,1.651,1.809,-79.834,-23.010,-160.645
-0.364,1.584,1.793,-68.542,-5.066,-171.875
-0.371,1.630,1.917,-56.396,9.644,-181.458
-0.390,1.771,2.111,-53.650,28.137,-194.336
-0.415,1.850,2.257,-50.964,54.260,-213.745
-0.402,1.878,2.363,-49.927,85.876,-239.319
-0.492,1.803,2.456,-49.011,118.958,-268.616
-0.618,1.647,2.492,-42.053,155.884,-298.462
-0.813,1.383,2.377,-25.513,198.730,-323.975
-1.003,1.073,1.992,-4.089,242.554,-340.027
-1.117,0.721,1.511,14.771,281.250,-344.727
-1.128,0.486,0.995,19.043,308.838,-339.355
-1.153,0.171,0.451,15.320,322.937,-327.026
-1.081,-0.087,-0.083,-0.732,320.984,-311.096
-0.858,-0.333,-0.502,-13.855,302.002,-290.710
-0.580,-0.566,-0.787,-11.536,267.761,-265.320
-0.326,-0.772,-0.877,-1.648,221.130,-235.535
-0.148,-0.890,-0.806,15.564,169.312,-199.890
-0.008,-0.863,-0.611,35.645,122.498,-160.400
0.127,-0.727,-0.431,55.237,87.585,-121.948
0.217,-0.535,-0.277,70.313,64.758,-89.661
0.273,-0.304,-0.138,73.792,50.842,-65.796
0.297,-0.108,-0.033,69.275,43.823,-51.270
0.331,0.011,0.042,60.242,41.931,-45.044
0.351,0.065,0.078,49.133,42.542,-44.128
0.381,0.064,0.090,35.889,44.800,-45.532
0.410,0.034,0.081,24.658,47.546,-46.570
0.432,-0.050,0.043,20.691,48.950,-44.373
0.450,-0.123,-0.006,19.836,47.363,-38.818
0.470,-0.166,-0.060,21.423,43.579,-30.396
0.504,-0.168,-0.112,26.794,36.865,-19.775
0.535,-0.128,-0.165,33.508,27.344,-7.812
0.552,-0.028,-0.183,38.147,15.747,4.028
0.563,0.102,-0.181,41.504,3.601,14.587
0.592,0.236,-0.148,41.260,-7.568,22.095
0.629,0.341,-0.073,35.156,-17.761,26.062
0.650,0.417,0.018,25.452,-26.001,27.039
0.677,0.453,0.117,16.541,-31.677,26.001
0.691,0.427,0.229,11.475,-35.156,24.658
0.695,0.426,0.364,9.705,-36.865,24.109
0.711,0.465,0.493,10.071,-35.339,24.170
0.710,0.500,0.551,20.508,-30.151,24.414
0.692,0.541,0.547,31.372,-23.254,24.048
0.681,0.545,0.494,37.964,-16.357,22.278
0.669,0.538,0.440,40.039,-12.573,20.203
0.673,0.549,0.411,31.433,-11.414,17.822
0.661,0.544,0.398,21.973,-11.108,15.869
0.678,0.538,0.393,14.038,-12.024,15.320
0.699,0.517,0.425,10.315,-14.099,15.686
0.687,0.552,0.484,6.592,-15.747,16.418
0.699,0.584,0.531,4.944,-14.832,15.198
0.728,0.597,0.533,9.216,-12.024,12.390
0.727,0.600,0.521,15.381,-9.216,9.827
0.714,0.581,0.496,21.118,-6.836,7.263
0.713,0.559,0.460,23.682,-4.944,5.127
0.703,0.533,0.428,23.560,-3.906,3.418
0.692,0.520,0.416,18.860,-4.089,3.540
0.678,0.516,0.427,12.451,-5.127,4.700
0.669,0.508,0.449,8.057,-6.226,6.104
0.677,0.504,0.466,6.714,-7.263,6.836
0.682,0.493,0.477,8.179,-7.935,7.263
0.703,0.501,0.490,9.521,-8.240,7.690
0.694,0.511,0.499,12.756,-7.874,8.240
0.696,0.519,0.498,16.235,-6.714,8.240
0.699,0.524,0.484,20.203,-5.554,7.935
0.687,0.521,0.458,24.658,-4.578,7.385
0.684,0.520,0.433,26.489,-4.272,7.080
0.682,0.521,0.416,23.621,-4.761,7.446
0.678,0.534,0.420,17.151,-5.798,8.179
0.681,0.544,0.430,10.620,-6.897,8.850
0.683,0.546,0.443,6.287,-7.812,9.155
0.676,0.537,0.461,2.258,-8.606,8.667
0.694,0.530,0.487,1.099,-9.033,8.484
0.703,0.513,0.494,5.127,-9.338,8.850
0.712,0.519,0.528,10.681,-9.644,9.888
0.671,0.552,0.552,13.855,-8.606,10.742
0.688,0.561,0.543,17.517,-6.042,9.644
