aX,aY,aZ,gX,gY,gZ
0.551,-0.272,1.894,-7.751,5.066,-22.583
0.570,-0.341,1.969,-14.465,14.282,-19.226
0.553,-0.359,2.036,-22.278,24.597,-14.160
0.499,-0.326,2.089,-29.358,36.194,-8.362
0.442,-0.281,2.142,-34.973,48.401,-3.784
0.356,-0.233,2.211,-42.114,61.646,-2.563
0.252,-0.175,2.277,-49.316,75.623,-3.662
0.165,-0.143,2.330,-49.805,91.492,-6.409
0.085,-0.129,2.362,-44.495,108.459,-10.864
-0.007,-0.139,2.354,-32.471,125.793,-16.479
-0.143,-0.197,2.288,-14.160,143.616,-23.621
-0.289,-0.285,2.138,3.967,160.339,-30.212
-0.404,-0.433,1.967,18.494,174.561,-34.485
-0.532,-0.618,1.843,26.489,185.303,-35.522
-0.698,-0.809,1.731,28.015,195.312,-33.020
-0.867,-1.042,1.593,25.818,207.764,-24.353
-0.985,-1.315,1.412,21.484,221.863,-8.362
-1.085,-1.484,1.196,15.869,234.497,17.090
-1.142,-1.547,0.980,11.353,243.286,53.406
-1.177,-1.470,0.742,9.888,247.253,95.337
-1.202,-1.282,0.502,12.756,247.925,137.390
-1.264,-1.015,0.295,18.127,246.033,174.316
-1.333,-0.792,0.148,27.100,241.150,200.439
-1.391,-0.649,0.052,37.903,234.619,214.478
-1.506,-0.647,-0.043,50.171,227.905,220.520
-1.601,-0.735,-0.165,60.059,222.229,229.187
-1.681,-0.826,-0.295,64.636,217.102,247.070
-1.767,-0.826,-0.454,61.890,211.426,276.489
-1.872,-0.723,-0.751,56.274,203.918,318.420
-1.925,-0.523,-1.082,44.128,193.359,369.080
-2.020,-0.186,-1.285,22.766,175.232,421.204
-2.192,0.295,-1.478,2.197,148.621,470.093
-2.226,0.870,-1.615,-23.254,119.202,511.169
-2.195,1.480,-1.523,-45.532,86.365,537.964
-2.187,1.998,-1.339,-46.021,48.401,546.143
-2.062,2.392,-1.076,-27.771,13.428,536.499
-2.014,2.604,-0.750,10.071,-15.564,511.658
-2.053,2.619,-0.479,48.279,-38.086,477.722
-2.004,2.551,-0.510,67.810,-50.415,445.129
-1.898,2.526,-0.686,76.843,-57.434,423.035
-1.887,2.609,-0.816,83.923,-75.256,409.729
-1.925,2.749,-0.791,85.022,-105.957,396.729
-1.903,2.852,-0.672,89.233,-139.893,379.028
-1.812,2.957,-0.442,97.412,-170.044,356.812
-1.701,3.127,-0.162,100.891,-193.054,332.397
-1.618,3.353,0.093,96.069,-203.552,305.298
-1.567,3.588,0.240,94.421,-201.538,272.461
-1.397,3.778,0.248,103.821,-194.275,231.201
-1.294,3.944,0.240,122.314,-188.416,178.406
-1.223,3.985,0.215,142.395,-186.646,113.831
-1.173,3.870,0.195,156.921,-186.951,39.978
-1.141,3.563,0.159,162.903,-187.256,-35.645
-1.113,3.204,0.136,160.217,-187.256,-104.187
-1.096,2.875,0.152,141.663,-187.256,-159.912
-1.052,2.636,0.231,110.962,-187.866,-204.712
-0.967,2.411,0.367,82.397,-187.866,-240.112
-0.958,2.357,0.508,65.552,-189.636,-270.142
-0.934,2.163,0.684,60.608,-190.002,-300.354
-0.865,2.004,0.930,54.749,-187.683,-325.989
-0.812,2.006,1.163,47.974,-182.129,-349.304
-0.790,2.042,1.370,46.997,-169.983,-375.061
-0.840,2.109,1.515,50.903,-153.809,-408.997
-1.017,2.129,1.644,56.396,-138.611,-453.308
-1.380,2.015,1.775,59.753,-126.282,-505.249
-1.786,1.718,1.892,55.908,-113.831,-561.218
-2.165,1.277,1.938,52.429,-99.976,-613.708
-2.385,0.704,1.846,59.692,-84.778,-652.039
-2.377,0.065,1.750,70.923,-70.618,-671.753
-2.244,-0.481,1.744,72.205,-61.279,-669.189
-2.043,-0.780,1.755,68.909,-50.659,-643.311
-1.861,-0.826,1.703,72.021,-33.508,-600.525
-1.760,-0.704,1.460,74.951,-11.963,-554.138
-1.603,-0.686,1.116,80.261,3.601,-514.160
-1.605,-0.807,0.934,77.332,8.423,-483.948
-1.648,-1.180,0.853,52.673,10.559,-460.083
-1.463,-1.663,0.858,4.700,18.250,-433.350
-1.170,-2.088,0.930,-40.283,27.283,-392.029
-0.917,-2.329,0.937,-57.495,33.203,-330.933
-0.680,-2.305,0.811,-48.584,33.203,-252.014
-0.440,-1.954,0.666,-33.813,24.658,-167.480
-0.278,-1.507,0.608,-28.381,6.409,-92.529
-0.199,-1.078,0.664,-34.180,-15.503,-35.522
-0.077,-0.659,0.786,-47.363,-33.081,4.333
0.056,-0.263,0.894,-57.007,-42.419,32.593
0.155,0.036,0.971,-55.115,-46.265,50.476
0.226,0.272,1.021,-47.668,-46.997,58.289
0.309,0.467,1.024,-37.048,-45.105,59.814
0.381,0.598,1.003,-22.583,-40.222,56.396
0.428,0.662,0.971,-10.498,-33.997,46.875
0.476,0.683,0.914,-3.052,-27.832,33.997
0.498,0.643,0.858,2.930,-22.339,22.156
0.507,0.594,0.782,4.822,-16.846,13.855
0.531,0.562,0.696,-1.404,-12.024,9.399
0.565,0.531,0.651,-13.489,-7.874,7.507
0.600,0.547,0.663,-25.391,-5.615,6.775
0.612,0.530,0.706,-26.489,-4.272,6.531
0.591,0.501,0.729,-19.653,-2.930,6.165
0.609,0.476,0.734,-13.672,-0.977,6.165
0.611,0.458,0.751,-11.292,-0.366,8.118
0.606,0.452,0.768,-9.338,-0.793,11.658
0.612,0.434,0.776,-4.272,-0.488,15.564
0.632,0.441,0.754,3.113,-0.427,19.348
0.616,0.451,0.717,10.925,0.244,23.315
0.573,0.486,0.677,13.855,1.160,26.917
0.571,0.564,0.621,8.423,3.052,28.198
0.569,0.598,0.582,1.831,4.700,26.794
0.559,0.615,0.593,-4.883,4.028,22.095
0.570,0.600,0.639,-9.277,0.854,15.869
0.570,0.563,0.669,-4.211,-3.174,10.620
0.545,0.499,0.676,4.578,-5.859,7.568
0.532,0.452,0.675,9.827,-8.118,7.324
0.525,0.420,0.690,12.878,-10.193,9.521
0.518,0.399,0.699,16.846,-11.230,12.451
0.510,0.391,0.698,20.874,-10.437,15.381
0.500,0.382,0.691,23.804,-8.484,17.944
0.489,0.378,0.662,24.658,-6.165,20.142
0.492,0.396,0.645,20.142,-3.906,23.315
0.502,0.405,0.650,15.442,-1.831,26.123
0.517,0.448,0.659,8.484,0.488,28.442

0.912,-0.349,1.588,21.179,-41.626,-30.823
0.911,-0.392,1.731,15.259,-37.781,-29.480
0.902,-0.434,1.886,11.230,-32.166,-27.954
0.861,-0.481,2.038,9.766,-25.757,-26.794
0.769,-0.521,2.161,8.057,-18.738,-26.489
0.658,-0.538,2.291,1.282,-9.888,-26.306
0.513,-0.531,2.478,-11.475,2.014,-25.269
0.313,-0.546,2.683,-26.794,19.775,-22.949
0.110,-0.576,2.842,-40.833,45.105,-19.958
-0.072,-0.656,2.926,-50.781,78.613,-15.564
-0.238,-0.715,2.878,-60.913,116.455,-8.728
-0.364,-0.686,2.738,-68.970,153.564,1.160
-0.439,-0.506,2.550,-71.106,184.509,15.137
-0.526,-0.328,2.300,-56.885,205.566,28.625
-0.634,-0.231,2.036,-32.715,216.125,36.377
-0.726,-0.215,1.808,-12.146,218.323,35.645
-0.829,-0.304,1.664,3.540,215.454,28.259
-0.974,-0.545,1.643,17.212,210.205,19.043
-1.134,-0.780,1.670,31.006,207.703,15.564
-1.330,-0.966,1.633,52.734,213.806,25.635
-1.524,-1.103,1.499,75.806,227.661,50.537
-1.651,-1.194,1.323,84.106,244.995,85.144
-1.788,-1.182,1.156,78.186,263.428,121.704
-1.932,-1.102,0.961,68.848,283.508,157.776
-2.008,-1.031,0.739,65.125,302.917,193.848
-2.075,-0.895,0.532,65.369,317.322,228.271
-2.167,-0.732,0.311,73.303,324.402,261.475
-2.255,-0.572,0.078,86.914,324.707,295.593
-2.292,-0.431,-0.138,99.121,317.322,330.383
-2.374,-0.265,-0.279,102.905,303.284,365.112
-2.480,-0.089,-0.299,99.976,285.461,399.109
-2.546,0.166,-0.250,104.980,266.602,433.228
-2.680,0.439,-0.212,125.549,249.084,466.003
-2.850,0.679,-0.199,144.470,236.755,494.019
-3.023,0.919,-0.339,158.020,227.905,518.372
-3.057,1.167,-0.617,157.959,221.558,544.678
-3.107,1.471,-0.791,149.292,210.876,569.885
-3.154,1.808,-0.888,148.560,187.500,590.515
-3.109,2.209,-1.010,156.982,154.663,608.032
-3.124,2.631,-1.022,176.025,115.295,618.591
-3.142,2.935,-0.963,190.857,63.660,617.187
-3.044,3.205,-0.839,181.885,9.766,603.638
-2.957,3.456,-0.681,166.382,-33.691,580.444
-2.947,3.735,-0.610,156.372,-70.129,550.476
-2.745,3.980,-0.642,147.705,-103.027,517.639
-2.429,4.000,-0.677,150.269,-138.550,477.600
-2.262,4.000,-0.589,160.828,-179.077,422.485
-2.144,4.000,-0.428,168.701,-218.628,350.403
-2.049,4.000,-0.194,168.884,-248.169,263.306
-1.973,4.000,0.047,161.743,-263.977,166.748
-1.889,4.000,0.248,150.269,-267.578,68.481
-1.784,4.000,0.376,138.428,-262.939,-24.475
-1.764,3.798,0.431,135.254,-254.272,-107.605
-1.714,3.411,0.434,134.766,-244.995,-177.307
-1.730,3.011,0.437,131.226,-236.816,-236.084
-1.721,2.732,0.472,120.850,-231.506,-288.391
-1.751,2.378,0.462,120.667,-227.600,-335.510
-1.721,1.927,0.383,132.507,-226.929,-371.704
-1.741,1.675,0.473,119.812,-229.797,-404.480
-1.541,1.259,0.626,98.694,-232.666,-424.866
-1.358,1.236,0.858,58.777,-234.131,-431.152
-1.204,1.265,1.098,27.161,-231.995,-433.533
-1.212,1.370,1.286,11.108,-221.985,-445.557
-1.328,1.468,1.467,0.183,-209.961,-475.769
-1.633,1.474,1.679,-1.953,-203.247,-520.691
-2.033,1.258,1.867,9.766,-200.317,-573.120
-2.448,0.849,1.964,35.767,-195.312,-623.657
-2.630,0.360,1.913,59.631,-182.983,-664.185
-2.701,0.006,1.841,65.918,-166.199,-687.378
-2.553,-0.377,1.622,78.796,-151.123,-688.232
-2.429,-0.505,1.450,81.909,-143.738,-672.180
-2.419,-0.460,1.322,79.407,-143.188,-646.667
-2.463,-0.425,1.310,75.134,-143.433,-622.192
-2.500,-0.496,1.407,62.805,-139.099,-605.164
-2.298,-0.622,1.549,48.218,-127.075,-590.332
-2.101,-0.842,1.597,48.462,-108.215,-566.895
-2.006,-1.122,1.563,53.406,-84.717,-532.471
-1.831,-1.529,1.440,48.035,-60.425,-492.310
-1.519,-1.994,1.287,39.246,-38.757,-445.068
-1.174,-2.339,1.140,29.785,-24.597,-388.489
-0.818,-2.510,1.032,28.564,-16.907,-319.397
-0.590,-2.477,0.923,38.818,-16.968,-240.356
-0.475,-2.298,0.818,52.124,-23.071,-157.776
-0.359,-1.997,0.753,49.988,-30.701,-79.712
-0.214,-1.633,0.741,25.818,-35.645,-10.437
-0.046,-1.190,0.788,-12.085,-36.682,46.936
0.094,-0.715,0.859,-47.974,-34.973,92.529
0.199,-0.238,0.925,-68.665,-32.654,124.146
0.302,0.189,1.006,-72.449,-31.067,142.334
0.367,0.521,1.089,-61.584,-30.151,146.973
0.399,0.765,1.148,-43.945,-28.931,137.512
0.407,0.882,1.187,-26.123,-25.513,116.760
0.430,0.900,1.208,-11.353,-18.494,89.050
0.452,0.810,1.162,2.502,-8.301,60.852
0.470,0.698,1.020,16.357,2.380,36.072
0.505,0.521,0.874,27.588,12.329,19.897
0.537,0.364,0.753,27.405,18.005,12.756
0.548,0.287,0.683,16.479,19.104,12.451
0.563,0.290,0.643,5.798,18.250,16.479
0.568,0.321,0.630,-0.549,15.991,21.851
0.540,0.384,0.606,-1.892,13.000,23.987
0.516,0.412,0.572,0.671,9.277,23.621
0.520,0.414,0.575,2.563,4.700,20.203
0.533,0.396,0.626,4.028,-1.709,15.015
0.535,0.354,0.711,10.803,-8.301,11.169
0.539,0.326,0.796,19.958,-15.076,10.498
0.518,0.297,0.870,29.602,-19.287,12.329
0.516,0.295,0.929,36.926,-19.958,15.564
0.516,0.312,0.936,42.542,-16.479,19.897
0.516,0.341,0.893,43.762,-10.742,25.146
0.514,0.387,0.795,39.917,-4.822,29.236
0.541,0.427,0.714,28.931,0.183,31.006
0.550,0.461,0.700,13.611,1.465,29.724
0.534,0.485,0.724,2.319,0.671,26.062
0.521,0.477,0.747,0.732,-0.916,21.851
0.531,0.421,0.750,6.409,-2.136,17.822
0.539,0.370,0.754,12.146,-3.967,14.893
0.536,0.350,0.752,16.785,-5.432,14.038
0.530,0.357,0.754,21.851,-7.446,15.137

0.780,0.234,1.712,10.803,-61.707,-20.935
0.742,0.287,1.819,11.536,-58.594,-22.339
0.683,0.328,1.939,10.376,-53.528,-26.123
0.574,0.381,2.072,7.324,-47.363,-33.569
0.394,0.438,2.184,5.920,-40.161,-43.762
0.204,0.396,2.299,11.414,-29.602,-53.894
0.026,0.272,2.434,20.081,-15.198,-62.866
-0.192,0.139,2.584,19.409,1.404,-71.594
-0.464,0.010,2.755,10.376,23.071,-80.383
-0.755,-0.109,2.910,0.244,51.208,-89.111
-1.030,-0.226,2.990,-4.944,84.839,-96.375
-1.244,-0.399,2.953,4.944,121.399,-98.450
-1.411,-0.604,2.752,28.137,158.752,-92.346
-1.518,-0.794,2.447,50.171,193.726,-77.087
-1.578,-0.962,2.152,59.753,221.985,-55.054
-1.625,-1.065,1.908,56.824,241.943,-31.494
-1.668,-1.115,1.670,46.997,255.371,-8.789
-1.688,-1.207,1.434,43.335,267.151,15.442
-1.736,-1.293,1.235,42.847,278.015,43.640
-1.808,-1.307,1.051,43.579,288.452,76.782
-1.860,-1.318,0.868,49.194,301.392,115.112
-1.913,-1.283,0.620,56.824,316.223,156.189
-1.984,-1.133,0.247,59.326,330.078,198.975
-1.998,-0.970,-0.227,62.439,337.891,243.164
-1.912,-0.810,-0.636,60.364,332.520,287.231
-1.821,-0.538,-0.839,44.983,311.401,326.233
-1.789,-0.231,-0.803,36.377,278.076,358.215
-1.791,0.033,-0.613,47.729,243.774,382.690
-1.859,0.259,-0.444,75.012,218.994,403.259
-1.945,0.429,-0.370,104.065,207.092,423.096
-2.034,0.546,-0.342,118.530,204.712,442.871
-2.200,0.785,-0.559,113.037,206.543,462.097
-2.158,1.032,-1.055,90.332,211.609,486.572
-1.916,1.389,-1.334,39.368,210.510,509.155
-1.858,1.841,-1.323,-12.085,188.721,517.883
-1.855,2.160,-1.212,-30.029,151.123,511.963
-1.794,2.335,-1.016,-18.311,111.511,496.826
-1.755,2.418,-0.809,5.432,74.768,475.098
-1.748,2.444,-0.596,32.593,42.603,450.806
-1.754,2.408,-0.428,65.857,16.602,428.101
-1.732,2.474,-0.525,100.830,-2.441,412.354
-1.603,2.579,-0.759,135.010,-16.968,404.663
-1.528,2.744,-0.891,146.484,-39.307,398.010
-1.487,2.936,-0.856,128.784,-72.632,385.132
-1.435,3.122,-0.694,108.093,-106.873,363.281
-1.383,3.294,-0.470,90.942,-132.690,331.116
-1.334,3.390,-0.301,74.707,-148.804,290.710
-1.293,3.453,-0.214,61.340,-157.471,245.544
-1.143,3.548,-0.161,58.655,-165.527,197.388
-1.045,3.633,-0.097,73.730,-177.612,145.264
-1.057,3.648,-0.009,102.234,-194.092,87.524
-1.083,3.582,0.116,124.939,-208.862,24.353
-1.095,3.469,0.263,131.287,-216.797,-41.504
-1.019,3.321,0.467,125.244,-216.125,-108.521
-1.125,2.979,0.562,120.972,-210.815,-168.640
-1.129,2.809,0.770,93.750,-202.820,-226.135
-1.087,2.522,0.931,65.369,-190.369,-273.499
-1.039,2.375,1.075,47.424,-176.270,-309.753
-1.028,2.266,1.219,43.213,-162.109,-342.773
-1.000,2.112,1.301,49.316,-146.729,-375.854
-0.955,1.994,1.306,61.951,-132.568,-409.729
-0.891,1.871,1.236,85.693,-119.690,-442.322
-0.917,1.749,1.176,111.572,-109.558,-473.145
-1.044,1.675,1.105,127.258,-99.792,-504.089
-1.209,1.562,1.083,131.958,-90.576,-537.537
-1.455,1.408,1.127,125.244,-83.557,-574.585
-1.723,1.223,1.167,109.802,-78.674,-611.938
-2.031,1.056,1.145,88.440,-76.294,-644.714
-2.376,0.832,1.031,78.369,-77.515,-673.035
-2.572,0.522,0.831,75.134,-83.557,-697.449
-2.737,-0.030,0.734,78.003,-97.839,-717.102
-2.891,-0.863,0.818,68.604,-116.943,-725.403
-2.579,-1.570,1.148,34.668,-128.296,-711.853
-2.176,-2.048,1.389,4.211,-124.817,-664.490
-1.888,-2.346,1.476,9.644,-110.596,-583.801
-1.581,-2.302,1.563,25.574,-94.788,-487.183
-1.363,-2.160,1.565,43.701,-80.444,-396.484
-1.155,-1.984,1.506,59.570,-63.049,-320.496
-0.987,-1.842,1.399,71.228,-42.358,-258.423
-0.882,-1.731,1.207,68.909,-20.325,-204.346
-0.663,-1.574,1.011,44.983,-2.075,-152.710
-0.495,-1.360,0.864,9.583,8.484,-102.112
-0.381,-1.066,0.768,-29.297,10.376,-54.993
-0.224,-0.745,0.724,-59.631,6.958,-17.395
-0.144,-0.478,0.712,-65.552,-2.625,7.935
-0.074,-0.244,0.732,-57.739,-17.639,23.560
-0.010,-0.040,0.835,-46.509,-34.363,28.992
0.048,0.063,0.932,-31.128,-47.607,29.541
0.121,0.117,1.005,-14.465,-56.702,27.954
0.161,0.127,1.102,-2.197,-60.547,24.048
0.179,0.106,1.206,4.028,-58.594,20.081
0.204,0.080,1.278,6.409,-48.096,18.066
0.219,0.063,1.301,8.850,-31.372,18.738
0.260,0.021,1.249,8.484,-9.033,22.644
0.302,0.020,1.130,0.671,14.221,27.405
0.337,0.047,0.957,-12.390,33.142,33.081
0.383,0.087,0.792,-26.733,43.274,39.978
0.445,0.161,0.696,-40.955,43.762,45.959
0.467,0.261,0.662,-47.668,35.889,48.767
0.455,0.360,0.660,-44.861,24.109,48.401
0.456,0.429,0.677,-33.264,12.512,45.593
0.488,0.481,0.714,-19.714,2.686,41.016
0.532,0.527,0.782,-9.705,-4.578,34.912
0.526,0.530,0.864,-0.122,-8.301,27.527
0.520,0.523,0.931,8.850,-9.155,18.494
0.503,0.475,0.943,17.456,-7.690,10.498
0.497,0.417,0.923,22.522,-5.066,5.859
0.497,0.364,0.909,20.874,-2.380,3.723
0.469,0.321,0.913,13.733,-0.183,2.441
0.445,0.282,0.922,7.263,2.319,1.465
0.429,0.219,0.912,3.723,5.859,1.282
0.428,0.178,0.881,-0.305,9.338,2.625
0.421,0.143,0.836,-1.526,11.414,5.798
0.428,0.119,0.795,-0.244,10.315,10.498
0.437,0.139,0.788,-1.099,6.348,16.235
0.432,0.222,0.819,-3.601,1.526,22.095
0.415,0.296,0.856,-3.845,-1.953,26.611
0.416,0.347,0.867,0.183,-3.601,27.832
0.438,0.366,0.869,3.967,-3.601,26.611

0.753,0.533,1.529,-13.733,-43.762,5.859
0.834,0.518,1.629,-4.578,-43.701,2.869
0.866,0.508,1.741,-1.160,-41.382,-2.625
0.841,0.513,1.874,-7.080,-36.743,-10.681
0.776,0.538,2.022,-21.240,-28.870,-21.545
0.668,0.571,2.162,-34.729,-17.944,-33.630
0.525,0.571,2.276,-41.992,-4.761,-45.654
0.365,0.556,2.362,-45.410,10.010,-56.396
0.201,0.501,2.456,-44.556,25.452,-65.979
0.011,0.403,2.552,-41.260,41.931,-74.646
-0.218,0.305,2.626,-37.292,61.340,-83.008
-0.507,0.237,2.653,-27.710,83.008,-90.576
-0.825,0.148,2.596,-8.240,105.957,-95.886
-1.055,-0.064,2.493,18.555,129.456,-96.558
-1.196,-0.323,2.362,39.795,152.222,-91.675
-1.330,-0.599,2.216,53.101,173.584,-81.726
-1.461,-0.870,2.058,58.899,194.336,-67.505
-1.528,-1.047,1.915,54.688,213.684,-48.706
-1.556,-1.157,1.781,51.086,231.506,-23.560
-1.594,-1.164,1.626,53.101,249.146,7.629
-1.662,-1.076,1.397,60.730,268.982,43.457
-1.697,-0.980,1.014,69.092,292.542,81.360
-1.622,-0.875,0.609,59.570,317.932,118.042
-1.579,-0.737,0.299,29.114,338.989,150.208
-1.591,-0.542,0.103,-5.066,352.905,176.819
-1.632,-0.367,-0.004,-21.912,360.657,198.730
-1.676,-0.216,-0.035,-17.395,363.647,218.079
-1.742,-0.029,-0.065,0.732,364.258,235.596
-1.811,0.179,-0.171,32.898,365.295,252.380
-1.836,0.326,-0.330,72.998,364.868,268.250
-1.853,0.411,-0.437,103.882,359.558,281.128
-1.937,0.501,-0.601,121.033,350.159,293.518
-1.968,0.562,-0.846,127.625,340.820,312.012
-1.914,0.641,-1.013,122.925,328.308,338.745
-1.942,0.773,-1.060,114.319,307.373,369.202
-2.019,0.972,-1.043,113.586,280.823,399.841
-2.078,1.168,-1.027,130.920,253.540,429.749
-2.139,1.374,-1.146,149.048,225.708,457.642
-2.007,1.645,-1.303,149.780,196.106,482.239
-1.850,1.986,-1.315,138.611,161.987,497.986
-1.850,2.304,-1.151,130.859,120.605,500.671
-1.853,2.558,-0.908,132.324,76.965,491.638
-1.796,2.755,-0.724,141.663,41.382,471.985
-1.704,2.876,-0.711,155.212,17.212,444.641
-1.637,2.996,-0.852,166.626,-2.136,413.086
-1.483,3.109,-1.024,172.791,-25.391,380.188
-1.264,3.277,-1.133,177.002,-58.411,347.412
-1.144,3.517,-1.141,172.058,-98.816,313.416
-1.150,3.747,-1.038,160.217,-140.686,275.208
-1.240,3.976,-0.867,140.320,-179.687,227.844
-1.292,4.000,-0.672,122.986,-209.961,168.213
-1.319,4.000,-0.458,115.540,-231.018,97.351
-1.203,4.000,-0.255,112.732,-244.385,16.968
-1.263,3.845,-0.187,123.840,-251.526,-62.134
-1.264,3.590,-0.107,129.822,-256.531,-134.583
-1.431,3.187,-0.156,130.920,-262.329,-198.364
-1.464,2.792,-0.113,129.150,-270.874,-248.779
-1.530,2.506,-0.069,122.192,-278.076,-287.048
-1.521,2.239,0.025,114.685,-282.959,-316.406
-1.441,2.076,0.243,87.769,-286.621,-338.013
-1.374,2.097,0.470,45.898,-285.828,-353.149
-1.296,2.168,0.684,19.836,-279.358,-369.263
-1.233,2.196,0.921,12.024,-271.606,-394.958
-1.300,2.203,1.179,10.132,-265.503,-433.838
-1.560,2.111,1.446,22.522,-260.132,-484.619
-1.920,1.855,1.681,56.824,-253.174,-542.786
-2.281,1.526,1.772,98.389,-240.601,-600.281
-2.499,1.086,1.707,136.841,-220.703,-645.264
-2.571,0.660,1.644,147.461,-198.242,-673.706
-2.527,0.423,1.657,124.390,-178.345,-682.495
-2.671,0.337,1.597,89.355,-159.607,-674.072
-2.641,0.409,1.541,49.744,-140.991,-663.818
-2.800,0.340,1.409,35.706,-126.709,-655.334
-2.987,-0.037,1.409,22.766,-121.155,-651.428
-3.141,-0.724,1.519,-0.549,-118.042,-645.874
-3.013,-1.456,1.644,-24.048,-106.262,-626.404
-2.283,-2.001,1.663,-35.156,-87.952,-582.458
-1.880,-2.617,1.502,-4.395,-69.946,-506.104
-1.513,-2.797,1.359,14.221,-56.580,-410.034
-1.153,-2.709,1.230,17.517,-50.964,-308.716
-0.943,-2.472,1.109,20.569,-50.232,-211.426
-0.802,-2.111,1.016,9.399,-48.584,-126.587
-0.636,-1.709,0.917,-18.555,-44.434,-57.922
-0.370,-1.265,0.814,-52.979,-41.138,-5.310
-0.107,-0.775,0.828,-79.224,-43.457,34.790
0.067,-0.317,0.955,-83.984,-53.650,64.209
0.115,0.089,1.127,-64.758,-67.261,79.529
0.155,0.361,1.284,-31.006,-75.684,79.834
0.205,0.492,1.395,-0.793,-74.158,68.359
0.242,0.533,1.475,14.648,-60.974,49.988
0.301,0.511,1.503,20.264,-39.917,31.311
0.363,0.427,1.466,23.743,-15.564,17.273
0.384,0.329,1.308,26.978,8.728,9.766
0.418,0.209,1.099,28.015,31.189,9.888
0.446,0.140,0.879,16.785,48.950,15.991
0.469,0.135,0.676,-7.324,61.523,24.719
0.504,0.205,0.544,-35.034,68.298,33.447
0.539,0.295,0.472,-52.673,67.871,39.368
0.557,0.345,0.427,-54.810,60.364,41.382
0.574,0.409,0.449,-47.363,47.546,40.039
0.581,0.420,0.483,-30.273,32.715,38.025
0.613,0.465,0.540,-14.099,17.273,36.499
0.626,0.527,0.627,0.244,3.296,34.668
0.613,0.583,0.720,14.771,-7.263,31.921
0.594,0.595,0.793,28.137,-12.695,28.625
0.546,0.568,0.818,34.729,-11.658,24.780
0.513,0.537,0.800,27.527,-5.432,19.775
0.535,0.493,0.785,11.963,3.174,15.076
0.561,0.437,0.775,-2.502,10.132,11.658
0.549,0.377,0.778,-10.193,13.977,10.254
0.542,0.337,0.781,-12.817,15.625,11.230
0.544,0.305,0.765,-9.399,16.418,14.832
0.547,0.302,0.734,-2.502,16.357,19.958
0.547,0.317,0.708,5.249,15.564,25.879
0.542,0.360,0.715,11.780,13.855,30.945
0.537,0.387,0.714,18.433,12.146,35.156
0.528,0.438,0.704,20.081,11.902,38.513
0.541,0.469,0.653,21.240,13.000,40.955
0.549,0.494,0.584,17.822,14.343,41.809

0.976,0.054,1.780,-6.287,-35.889,2.869
1.010,0.064,1.975,-10.681,-32.288,2.014
0.972,0.090,2.159,-13.306,-29.175,-1.892
0.916,0.082,2.400,-21.057,-24.963,-8.118
0.809,0.111,2.708,-38.086,-15.137,-16.907
0.598,0.094,3.037,-50.049,3.845,-28.137
0.324,0.089,3.330,-57.861,32.593,-41.382
0.047,0.065,3.536,-63.049,68.604,-54.810
-0.245,-0.024,3.617,-58.960,108.215,-66.833
-0.578,-0.134,3.584,-50.598,147.278,-76.172
-0.900,-0.297,3.435,-34.668,184.998,-78.430
-1.168,-0.503,3.141,-9.094,219.299,-71.594
-1.377,-0.718,2.757,18.066,246.704,-57.068
-1.572,-0.892,2.351,37.170,266.724,-38.147
-1.718,-1.035,1.967,47.485,280.029,-17.883
-1.796,-1.151,1.628,52.490,286.987,4.395
-1.824,-1.155,1.360,44.312,289.307,31.982
-1.840,-1.109,1.135,37.415,289.917,64.636
-1.961,-1.001,0.847,33.508,295.105,100.525
-2.019,-0.855,0.485,16.541,307.129,137.939
-1.952,-0.656,0.149,-18.127,326.233,173.035
-1.901,-0.400,-0.158,-57.251,344.971,201.294
-1.915,-0.142,-0.417,-86.548,357.788,220.520
-1.870,0.076,-0.565,-97.717,363.403,232.666
-1.844,0.227,-0.627,-83.313,362.488,242.126
-1.797,0.341,-0.606,-33.997,354.797,250.977
-1.992,0.362,-0.609,38.879,342.224,260.803
-2.105,0.373,-0.711,113.098,329.773,274.414
-2.181,0.374,-0.910,182.129,315.735,296.326
-2.208,0.372,-1.034,236.389,294.128,329.468
-2.311,0.422,-1.007,263.062,267.334,368.896
-2.464,0.566,-1.044,266.785,242.371,413.940
-2.531,0.776,-1.134,243.286,224.548,463.379
-2.530,1.114,-1.096,184.509,211.609,504.883
-2.569,1.450,-1.095,124.390,199.524,532.654
-2.430,1.868,-1.225,68.909,189.758,549.255
-2.168,2.334,-1.308,29.724,178.406,555.969
-2.020,2.755,-1.419,32.654,152.222,550.232
-1.902,3.014,-1.553,63.293,108.521,532.837
-1.687,3.129,-1.502,89.233,52.856,502.930
-1.621,3.274,-1.301,104.370,-6.409,461.670
-1.602,3.378,-1.044,123.535,-57.922,414.001
-1.569,3.358,-0.802,150.452,-94.849,364.685
-1.578,3.340,-0.627,169.800,-118.896,313.354
-1.483,3.313,-0.502,177.124,-135.193,264.832
-1.306,3.362,-0.421,169.373,-146.790,223.206
-1.192,3.509,-0.415,161.621,-153.992,184.448
-1.142,3.670,-0.450,154.724,-160.217,143.250
-1.113,3.787,-0.422,137.146,-167.419,93.689
-1.109,3.805,-0.331,111.816,-178.833,36.743
-1.111,3.973,-0.117,77.209,-187.622,-25.635
-1.232,3.812,0.014,72.998,-195.740,-90.515
-1.218,3.639,0.202,72.754,-201.477,-157.410
-1.278,3.413,0.342,66.101,-200.623,-220.459
-1.329,3.163,0.411,58.228,-194.275,-277.222
-1.370,2.917,0.408,52.673,-183.350,-330.017
-1.383,2.677,0.299,53.894,-172.546,-374.390
-1.396,2.466,0.153,60.913,-167.664,-411.011
-1.472,2.265,0.021,72.571,-172.424,-444.397
-1.575,2.079,-0.100,82.703,-183.655,-475.891
-1.621,1.867,-0.239,88.440,-198.547,-504.150
-1.634,1.698,-0.276,81.604,-217.285,-529.907
-1.754,1.556,-0.180,64.453,-241.150,-554.565
-2.016,1.365,0.011,42.847,-265.930,-578.308
-2.297,1.144,0.276,21.973,-286.316,-602.905
-2.523,0.949,0.634,3.235,-299.744,-626.709
-2.822,0.858,1.021,-11.658,-308.411,-645.386
-3.218,0.638,1.362,-14.465,-313.110,-657.898
-3.134,0.707,1.809,-27.893,-312.317,-667.603
-3.097,0.379,2.022,-16.907,-306.335,-670.410
-3.090,-0.116,2.135,24.292,-289.917,-655.762
-3.003,-0.442,2.233,54.077,-266.235,-624.634
-2.567,-0.525,2.336,60.242,-235.229,-587.341
-2.346,-0.858,2.285,81.909,-196.289,-546.082
-2.332,-1.090,2.228,84.595,-148.010,-502.197
-2.180,-1.343,2.124,44.128,-92.651,-460.510
-1.849,-1.662,1.984,-9.949,-38.635,-415.283
-1.478,-1.920,1.835,-57.617,3.418,-362.549
-1.140,-2.097,1.615,-75.439,30.090,-298.767
-0.781,-2.206,1.321,-64.209,41.809,-225.830
-0.503,-2.140,1.023,-48.157,39.124,-149.048
-0.307,-1.873,0.826,-41.016,23.376,-75.073
-0.164,-1.463,0.786,-42.053,0.488,-9.949
-0.100,-1.011,0.855,-44.373,-20.874,40.527
-0.024,-0.606,0.968,-41.931,-34.424,74.646
0.032,-0.271,1.047,-35.645,-38.025,93.750
0.100,-0.039,1.078,-30.640,-34.302,103.088
0.213,0.161,1.080,-32.288,-25.818,106.140
0.368,0.344,1.066,-35.767,-15.991,106.323
0.455,0.496,1.035,-36.438,-6.226,102.783
0.507,0.628,1.003,-33.752,3.784,94.727
0.537,0.692,0.948,-28.992,14.099,83.008
0.537,0.698,0.873,-25.757,23.560,69.885
0.557,0.661,0.785,-28.259,33.203,57.007
0.580,0.615,0.684,-34.119,41.504,46.326
0.615,0.582,0.581,-36.011,45.044,38.818
0.639,0.538,0.479,-28.503,41.382,34.180
0.664,0.523,0.415,-17.334,31.677,31.494
0.645,0.495,0.379,-5.005,18.372,30.457
0.604,0.497,0.412,0.916,5.127,29.358
0.613,0.488,0.465,3.418,-5.249,27.527
0.609,0.479,0.535,3.784,-11.963,24.902
0.587,0.454,0.624,2.686,-14.832,22.644
0.572,0.430,0.712,2.014,-13.428,21.118
0.560,0.420,0.752,2.502,-9.583,21.057
0.547,0.424,0.763,5.676,-5.188,21.484
0.538,0.423,0.754,9.399,-1.221,22.156
0.536,0.418,0.716,12.695,2.380,22.827
0.529,0.419,0.656,11.414,5.066,23.926
0.541,0.432,0.623,6.165,6.653,25.574
0.540,0.434,0.628,0.488,6.958,26.306
0.527,0.425,0.655,-2.380,5.493,25.940
0.512,0.404,0.671,-0.244,3.845,25.269
0.512,0.383,0.667,3.418,3.418,26.245
0.533,0.359,0.663,6.958,3.662,28.259
0.551,0.348,0.669,9.949,2.075,30.823
0.574,0.369,0.671,12.817,-0.732,34.607
0.590,0.388,0.663,19.470,-2.136,38.818
0.561,0.435,0.660,26.489,-2.136,42.053

1.013,0.365,1.399,-26.978,-38.086,19.531
1.061,0.406,1.537,-24.414,-42.358,19.409
1.076,0.468,1.727,-25.879,-47.852,16.907
1.027,0.539,1.934,-26.367,-53.223,11.414
0.921,0.582,2.158,-23.621,-54.688,3.662
0.781,0.619,2.406,-24.536,-48.157,-6.104
0.613,0.597,2.609,-26.550,-32.654,-19.043
0.435,0.552,2.719,-29.114,-9.277,-33.203
0.250,0.475,2.725,-29.602,18.677,-45.532
0.066,0.349,2.700,-31.677,48.706,-54.932
-0.123,0.246,2.667,-44.250,79.163,-61.401
-0.327,0.189,2.613,-59.082,109.619,-66.284
-0.528,0.115,2.520,-66.467,139.648,-70.496
-0.695,0.035,2.377,-65.918,166.565,-74.219
-0.813,-0.005,2.181,-60.181,188.049,-76.233
-0.943,-0.032,1.968,-47.729,202.271,-75.745
-1.041,-0.143,1.753,-24.963,207.703,-72.327
-1.127,-0.218,1.590,-10.193,205.994,-66.589
-1.181,-0.265,1.487,-3.052,201.965,-58.960
-1.204,-0.302,1.409,6.042,200.928,-48.584
-1.222,-0.363,1.333,19.226,204.346,-34.973
-1.285,-0.477,1.266,33.691,211.243,-18.982
-1.396,-0.581,1.242,39.551,224.060,-2.075
-1.482,-0.585,1.234,37.048,244.812,17.517
-1.611,-0.628,1.146,36.743,274.963,41.199
-1.658,-0.678,0.892,38.757,311.829,67.383
-1.729,-0.595,0.692,39.001,346.008,96.130
-1.750,-0.451,0.363,43.762,375.000,127.686
-1.754,-0.318,-0.002,59.937,395.081,164.429
-1.761,-0.140,-0.359,68.420,403.137,201.843
-1.768,0.051,-0.749,64.575,399.658,234.558
-1.752,0.267,-1.135,44.678,386.353,260.498
-1.568,0.450,-1.456,16.479,366.821,280.396
-1.334,0.623,-1.611,-6.897,339.661,293.396
-1.213,0.799,-1.572,-20.142,304.443,297.791
-1.126,0.928,-1.360,-15.808,265.381,296.021
-1.129,1.015,-1.040,3.296,229.004,290.894
-1.165,1.040,-0.779,37.476,201.782,288.025
-1.172,1.077,-0.732,77.576,187.683,291.809
-1.174,1.144,-0.863,108.093,184.814,303.162
-1.217,1.204,-0.966,120.850,180.725,316.711
-1.287,1.232,-0.923,118.958,165.833,328.552
-1.345,1.171,-0.737,118.408,145.691,341.370
-1.456,1.161,-0.631,129.700,130.127,359.558
-1.577,1.298,-1.019,143.860,124.756,386.536
-1.479,1.719,-1.615,139.343,124.329,420.227
-1.375,2.086,-2.082,133.667,107.788,449.707
-1.174,2.528,-2.245,119.080,62.439,464.661
-0.974,2.915,-2.288,105.774,-8.911,457.275
-0.995,3.238,-2.143,107.300,-92.590,428.223
-1.151,3.455,-1.774,109.802,-171.692,377.747
-1.216,3.505,-1.304,106.323,-233.337,313.171
-1.134,3.451,-0.858,100.464,-270.691,243.103
-1.057,3.254,-0.478,105.286,-284.973,174.011
-0.987,2.975,-0.196,108.948,-282.959,110.718
-0.924,2.717,0.026,103.455,-272.095,60.303
-0.855,2.610,0.166,94.055,-255.066,22.705
-0.847,2.437,0.213,99.121,-236.816,-2.930
-0.800,2.350,0.205,100.403,-218.567,-21.118
-0.714,2.355,0.173,94.116,-202.148,-38.330
-0.608,2.408,0.120,87.646,-190.552,-56.091
-0.501,2.561,0.031,87.524,-184.814,-77.026
-0.377,2.679,-0.014,99.915,-186.340,-104.431
-0.334,2.803,-0.006,111.511,-195.496,-143.433
-0.349,2.788,0.096,114.624,-209.229,-193.665
-0.434,2.630,0.327,107.849,-222.717,-248.413
-0.589,2.438,0.609,87.891,-231.262,-302.185
-0.729,2.217,0.875,68.726,-233.398,-349.304
-0.834,1.971,1.069,62.744,-228.027,-387.878
-0.963,1.781,1.129,71.655,-217.957,-419.556
-0.990,1.679,1.074,88.562,-206.177,-444.580
-0.982,1.589,0.958,118.164,-195.679,-466.003
-1.046,1.482,0.832,151.917,-187.988,-488.037
-1.217,1.306,0.736,185.120,-181.946,-513.184
-1.484,1.041,0.674,209.412,-175.964,-541.321
-1.751,0.761,0.693,205.261,-169.006,-569.336
-1.998,0.436,0.698,159.363,-161.438,-593.201
-2.008,0.125,0.827,99.060,-156.799,-602.417
-1.893,-0.115,1.138,46.204,-161.682,-593.140
-1.840,-0.298,1.514,7.080,-168.213,-566.833
-1.868,-0.466,1.837,-0.977,-164.368,-527.710
-1.598,-0.619,1.967,29.053,-147.461,-480.835
-1.360,-0.875,1.797,94.421,-123.047,-429.138
-1.179,-1.075,1.434,143.066,-98.511,-378.479
-0.922,-1.151,1.045,151.123,-77.209,-329.834
-0.736,-1.140,0.730,129.761,-63.110,-281.738
-0.598,-1.019,0.601,89.661,-57.739,-235.352
-0.596,-0.925,0.607,45.532,-57.251,-193.970
-0.542,-0.847,0.718,7.935,-56.152,-160.339
-0.397,-0.875,0.791,-8.545,-51.147,-132.812
-0.293,-0.893,0.758,-5.676,-44.739,-105.591
-0.168,-0.859,0.716,0.366,-42.542,-75.012
-0.039,-0.763,0.749,4.395,-47.180,-41.321
0.047,-0.582,0.849,3.235,-56.885,-8.423
0.066,-0.359,0.947,1.709,-65.857,18.860
0.112,-0.158,0.992,3.662,-68.787,39.246
0.206,0.025,1.017,2.502,-65.308,54.199
0.243,0.179,1.013,2.869,-58.716,64.026
0.272,0.293,0.998,0.183,-48.523,68.481
0.328,0.376,0.958,-5.798,-35.583,67.749
0.369,0.415,0.893,-11.475,-23.010,62.866
0.443,0.412,0.817,-16.663,-12.512,55.603
0.479,0.400,0.773,-20.447,-6.348,48.096
0.499,0.374,0.756,-20.020,-4.761,41.687
0.500,0.370,0.747,-14.038,-6.165,37.476
0.510,0.372,0.762,-7.019,-8.118,35.706
0.532,0.385,0.790,-1.343,-9.399,35.950
0.528,0.405,0.783,1.282,-10.193,36.072
0.505,0.440,0.745,3.540,-9.766,35.889
0.514,0.441,0.702,4.150,-8.606,36.133
0.542,0.468,0.683,-0.061,-8.423,35.400
0.540,0.513,0.673,-3.967,-9.338,33.142
0.528,0.514,0.685,-4.333,-10.071,29.846
0.526,0.489,0.730,-5.493,-10.010,24.231
0.513,0.456,0.776,-7.019,-10.132,16.907
0.507,0.418,0.818,-5.066,-11.353,11.902
0.504,0.398,0.844,-0.610,-12.573,10.864
0.488,0.419,0.856,2.991,-13.306,11.780
0.471,0.437,0.865,7.080,-13.367,12.024

0.760,0.622,1.488,-27.466,-90.576,4.822
0.711,0.686,1.677,-24.658,-94.299,0.366
0.647,0.740,1.878,-26.550,-93.201,-7.629
0.571,0.752,2.036,-27.222,-86.365,-18.555
0.485,0.748,2.169,-24.353,-75.012,-28.748
0.367,0.709,2.254,-19.409,-62.012,-37.292
0.206,0.654,2.329,-17.883,-48.096,-46.448
0.055,0.578,2.421,-23.743,-33.081,-56.763
-0.144,0.500,2.495,-37.048,-14.099,-68.481
-0.336,0.410,2.549,-52.795,7.568,-80.017
-0.552,0.331,2.585,-68.542,31.921,-90.759
-0.831,0.292,2.594,-73.669,57.556,-99.426
-1.012,0.131,2.602,-58.472,84.534,-104.370
-1.103,-0.012,2.590,-43.762,111.145,-106.995
-1.178,-0.122,2.550,-31.799,134.766,-106.812
-1.270,-0.233,2.490,-15.747,158.447,-103.088
-1.339,-0.337,2.434,-2.136,182.739,-95.459
-1.391,-0.414,2.363,11.963,205.994,-85.022
-1.438,-0.466,2.228,30.518,231.506,-70.801
-1.515,-0.552,1.975,51.514,258.545,-51.147
-1.508,-0.570,1.723,61.218,288.269,-28.015
-1.490,-0.490,1.370,66.467,319.092,-2.686
-1.589,-0.518,0.956,70.618,341.980,25.635
-1.477,-0.488,0.674,40.100,359.131,52.246
-1.474,-0.424,0.464,4.333,370.056,74.707
-1.450,-0.329,0.310,-24.963,378.235,91.858
-1.403,-0.249,0.140,-32.288,382.446,107.239
-1.326,-0.175,-0.001,-19.165,381.531,122.986
-1.303,-0.125,-0.125,5.798,374.512,139.587
-1.316,-0.058,-0.196,31.738,363.403,155.273
-1.328,0.024,-0.243,55.237,352.600,169.556
-1.346,0.077,-0.297,74.158,344.482,184.265
-1.399,0.127,-0.386,85.754,338.379,200.073
-1.502,0.205,-0.602,85.022,336.731,217.834
-1.472,0.296,-0.875,75.867,337.036,240.479
-1.338,0.351,-1.069,69.702,331.421,265.869
-1.303,0.412,-1.193,63.721,315.552,289.917
-1.312,0.527,-1.233,55.481,293.823,311.829
-1.321,0.673,-1.206,55.054,269.836,333.374
-1.400,0.840,-1.260,61.218,245.544,353.210
-1.372,1.022,-1.326,60.547,224.976,370.178
-1.339,1.256,-1.458,60.120,204.468,383.118
-1.319,1.519,-1.729,59.082,181.580,392.395
-1.175,1.788,-1.883,53.284,152.710,396.973
-1.042,1.974,-1.854,60.547,109.497,392.883
-0.958,2.096,-1.714,77.820,53.040,377.502
-0.995,2.161,-1.489,100.891,-5.005,353.943
-1.065,2.111,-1.242,130.249,-52.002,329.163
-1.115,2.045,-1.087,155.273,-85.327,309.692
-1.109,1.972,-1.045,179.749,-109.314,297.546
-1.080,1.994,-1.046,194.153,-130.554,293.579
-1.019,2.163,-0.943,188.660,-152.588,295.166
-1.038,2.376,-0.755,168.457,-173.706,296.204
-1.115,2.674,-0.571,136.414,-186.890,289.917
-1.050,2.971,-0.480,106.079,-190.918,272.827
-0.918,3.234,-0.441,86.121,-191.589,243.164
-0.825,3.430,-0.382,71.655,-196.777,198.669
-0.788,3.498,-0.292,66.223,-207.336,141.052
-0.783,3.437,-0.177,71.960,-220.459,74.646
-0.785,3.231,-0.066,88.867,-234.314,5.615
-0.873,2.936,0.085,116.211,-247.681,-59.143
-0.923,2.589,0.262,138.367,-256.836,-113.708
-0.879,2.294,0.426,147.705,-258.057,-155.640
-0.852,2.028,0.532,149.170,-250.122,-184.387
-0.790,1.868,0.587,140.503,-234.924,-202.942
-0.699,1.768,0.564,128.235,-216.187,-215.149
-0.642,1.740,0.462,118.469,-198.792,-225.464
-0.581,1.784,0.378,107.666,-188.660,-236.694
-0.533,1.870,0.414,100.220,-189.880,-252.441
-0.495,1.948,0.652,95.398,-198.792,-276.306
-0.502,1.988,1.004,85.327,-205.017,-308.716
-0.605,2.005,1.290,70.313,-198.975,-347.900
-0.743,2.037,1.423,56.702,-182.007,-392.334
-0.960,2.058,1.387,56.152,-161.255,-440.918
-1.211,2.104,1.236,70.740,-145.264,-490.845
-1.567,2.039,1.119,101.868,-139.709,-540.955
-2.142,1.832,1.030,131.470,-141.846,-593.933
-2.488,1.513,0.988,146.362,-144.043,-646.973
-2.707,1.053,0.878,165.466,-141.357,-686.462
-2.841,0.567,0.801,181.885,-139.099,-703.369
-2.797,-0.039,0.736,173.645,-135.193,-696.899
-2.627,-0.652,0.769,144.836,-129.761,-670.532
-2.141,-1.172,0.944,100.098,-122.253,-629.822
-1.829,-1.669,1.176,66.345,-112.061,-572.876
-1.610,-2.016,1.395,42.969,-96.375,-503.113
-1.223,-2.148,1.497,33.875,-74.402,-424.805
-1.061,-2.227,1.411,50.537,-52.429,-340.149
-0.816,-2.213,1.209,72.876,-34.912,-257.141
-0.628,-2.041,0.976,79.163,-24.414,-180.054
-0.484,-1.828,0.713,65.308,-17.944,-106.873
-0.316,-1.391,0.590,19.043,-15.198,-40.710
-0.139,-0.952,0.552,-21.423,-16.785,13.245
-0.036,-0.543,0.528,-33.997,-23.926,52.490
0.022,-0.222,0.513,-24.597,-37.109,74.524
0.078,-0.015,0.533,-4.761,-53.284,83.435
0.136,0.122,0.603,10.315,-69.824,84.290
0.193,0.217,0.736,16.113,-83.923,79.651
0.221,0.273,0.879,18.066,-92.590,72.754
0.265,0.291,0.999,20.264,-93.750,65.796
0.330,0.284,1.079,21.362,-86.365,59.998
0.369,0.261,1.101,20.081,-73.181,56.641
0.410,0.263,1.102,9.399,-54.382,55.359
0.443,0.327,1.060,-6.226,-33.508,56.458
0.482,0.386,0.993,-19.165,-12.695,58.533
0.487,0.457,0.928,-27.466,4.578,58.838
0.491,0.526,0.861,-34.241,16.296,56.213
0.502,0.594,0.773,-30.273,21.362,50.110
0.521,0.620,0.692,-15.625,18.555,41.687
0.531,0.588,0.640,2.563,10.864,31.860
0.526,0.547,0.643,14.282,-0.061,22.034
0.518,0.483,0.689,25.024,-10.742,14.465
0.479,0.417,0.714,37.048,-18.494,10.803
0.434,0.361,0.703,44.922,-22.034,11.597
0.477,0.361,0.700,37.537,-22.644,14.587
0.498,0.393,0.725,22.034,-22.827,17.700
0.489,0.432,0.792,6.531,-22.766,18.066
0.471,0.454,0.865,-4.517,-20.874,15.808
0.459,0.445,0.902,-7.385,-17.090,12.329
0.458,0.406,0.906,-4.333,-12.085,9.155

0.632,0.571,1.636,-46.997,-65.369,25.330
0.616,0.691,1.754,-44.373,-63.171,26.917
0.592,0.806,1.869,-40.588,-58.594,23.376
0.523,0.906,1.956,-33.630,-52.368,14.465
0.461,0.928,2.050,-22.339,-44.556,2.563
0.371,0.905,2.164,-15.869,-34.973,-12.146
0.248,0.852,2.302,-15.259,-23.132,-30.884
0.093,0.740,2.413,-16.052,-7.202,-51.941
-0.072,0.592,2.471,-15.625,14.099,-72.754
-0.212,0.402,2.481,-14.038,39.673,-89.478
-0.382,0.244,2.437,-17.273,64.575,-101.257
-0.549,0.113,2.393,-24.353,86.304,-107.788
-0.705,0.017,2.386,-29.968,105.774,-108.765
-0.834,-0.070,2.397,-31.189,125.000,-104.858
-0.950,-0.145,2.393,-26.367,147.217,-97.107
-1.034,-0.251,2.339,-13.306,172.485,-87.158
-1.093,-0.331,2.219,0.671,199.585,-76.294
-1.212,-0.393,1.928,17.151,227.173,-63.477
-1.270,-0.491,1.561,30.273,253.906,-47.363
-1.237,-0.619,1.274,28.076,275.330,-30.396
-1.224,-0.741,1.092,13.672,287.842,-15.320
-1.259,-0.890,0.993,1.282,295.837,-0.427
-1.288,-1.042,0.909,-3.113,304.260,19.165
-1.284,-1.192,0.808,0.305,314.941,47.729
-1.302,-1.250,0.686,5.127,327.759,86.121
-1.405,-1.160,0.548,5.005,342.834,130.981
-1.552,-0.910,0.359,1.831,358.887,177.612
-1.651,-0.630,0.118,7.446,372.253,220.703
-1.679,-0.363,-0.100,16.541,379.761,255.493
-1.703,-0.094,-0.289,22.888,379.517,280.640
-1.725,0.125,-0.428,28.015,373.535,297.119
-1.754,0.261,-0.515,24.475,364.258,304.932
-1.803,0.347,-0.572,18.555,352.844,307.068
-1.882,0.337,-0.663,19.653,342.468,310.730
-1.905,0.326,-0.772,26.367,334.045,323.486
-1.965,0.352,-0.929,42.725,323.303,345.825
-2.043,0.398,-1.074,57.739,308.838,374.573
-2.104,0.500,-1.133,65.308,292.175,406.433
-2.180,0.697,-1.204,75.073,271.729,441.223
-2.263,1.072,-1.423,82.886,247.620,476.562
-2.223,1.571,-1.638,87.646,219.604,506.653
-2.167,2.038,-1.827,95.032,178.040,524.475
-2.053,2.472,-2.082,105.286,124.634,526.428
-1.786,2.945,-2.266,110.107,67.383,516.113
-1.487,3.270,-2.253,111.084,8.789,496.277
-1.457,3.690,-2.041,97.778,-55.237,456.238
-1.455,3.925,-1.719,78.918,-120.178,394.958
-1.459,3.952,-1.297,57.495,-170.959,316.467
-1.398,3.796,-0.894,44.189,-200.134,230.286
-1.363,3.514,-0.590,50.293,-210.693,153.076
-1.304,3.258,-0.410,68.848,-209.290,94.421
-1.252,3.070,-0.350,90.088,-199.829,52.124
-1.229,2.959,-0.412,109.314,-188.293,18.555
-1.211,2.877,-0.542,124.390,-181.458,-12.268
-1.167,2.762,-0.691,136.475,-183.228,-44.739
-1.158,2.654,-0.843,144.287,-194.580,-78.613
-1.084,2.490,-0.971,152.893,-213.867,-111.816
-1.012,2.277,-1.045,162.781,-240.295,-143.494
-0.983,2.061,-1.043,166.321,-271.179,-173.584
-0.982,1.811,-0.883,156.250,-304.749,-200.195
-0.900,1.597,-0.504,124.146,-337.708,-219.788
-0.821,1.550,0.015,76.599,-361.511,-229.065
-0.779,1.656,0.489,34.546,-368.225,-231.323
-0.886,1.826,0.808,12.451,-357.361,-236.877
-0.927,1.963,0.950,12.634,-338.562,-253.845
-0.938,1.998,0.971,26.794,-322.083,-283.752
-1.001,1.926,0.994,51.147,-312.744,-324.219
-1.099,1.765,1.062,79.895,-309.998,-370.117
-1.275,1.500,1.186,106.628,-307.068,-414.917
-1.538,1.287,1.270,121.521,-299.194,-455.200
-1.931,1.084,1.258,121.582,-285.217,-488.037
-1.984,1.116,1.256,107.483,-269.592,-516.357
-2.339,1.040,1.399,99.609,-258.057,-542.358
-2.632,0.638,1.494,94.116,-248.657,-563.965
-2.669,0.233,1.683,80.261,-236.877,-572.815
-2.488,-0.184,1.863,67.871,-218.628,-562.439
-2.150,-0.464,2.038,61.646,-193.848,-533.875
-1.729,-0.610,2.091,74.036,-162.781,-491.943
-1.590,-0.731,1.963,105.164,-128.662,-442.566
-1.545,-0.775,1.768,122.192,-93.567,-396.423
-1.353,-0.883,1.535,124.207,-61.157,-358.887
-1.157,-1.134,1.293,112.305,-35.217,-325.378
-0.925,-1.413,1.091,84.778,-17.212,-288.147
-0.641,-1.570,0.973,53.345,-6.653,-241.943
-0.349,-1.627,0.891,38.330,-2.380,-184.326
-0.168,-1.534,0.805,39.490,-2.258,-120.544
-0.039,-1.273,0.731,43.884,-4.333,-56.641
0.009,-0.903,0.679,35.217,-6.042,-1.099
0.073,-0.527,0.633,19.531,-6.531,40.039
0.208,-0.156,0.606,8.545,-7.385,67.505
0.282,0.120,0.594,10.254,-12.268,83.923
0.343,0.333,0.616,19.897,-20.203,89.966
0.354,0.463,0.681,33.875,-28.564,87.463
0.361,0.488,0.723,44.678,-33.630,80.872
0.400,0.460,0.765,44.922,-32.166,74.768
0.440,0.454,0.771,35.339,-23.743,71.411
0.465,0.464,0.715,23.071,-11.841,71.289
0.500,0.505,0.618,7.446,-0.366,73.730
0.580,0.592,0.544,-8.972,8.179,77.026
0.612,0.746,0.497,-19.653,10.254,78.552
0.639,0.873,0.468,-17.212,5.249,76.599
0.653,0.946,0.473,-3.662,-3.845,69.641
0.634,0.986,0.525,10.254,-14.160,57.861
0.609,0.983,0.609,20.752,-23.560,43.091
0.588,0.937,0.723,28.809,-28.992,27.100
0.559,0.863,0.831,35.645,-30.151,11.658
0.520,0.771,0.900,43.518,-26.550,-0.488
0.496,0.623,0.910,53.040,-17.944,-6.714
0.501,0.507,0.891,48.889,-7.874,-9.216
0.495,0.444,0.859,33.264,1.953,-7.568
0.489,0.415,0.812,15.503,12.329,-2.991
0.489,0.428,0.760,-1.282,21.301,3.662
0.511,0.470,0.712,-11.902,27.466,10.498
0.517,0.547,0.661,-13.550,29.541,15.137
0.517,0.639,0.605,-6.348,26.611,16.235
0.521,0.697,0.555,8.423,20.203,14.709
0.521,0.722,0.527,19.104,12.268,9.827
0.512,0.722,0.536,24.841,3.601,2.319
0.508,0.680,0.592,29.480,-3.967,-4.883

0.733,0.399,1.709,-42.664,-62.683,24.048
0.709,0.469,1.852,-46.753,-62.134,22.339
0.679,0.595,2.016,-54.565,-59.509,19.836
0.626,0.746,2.198,-62.256,-54.382,16.602
0.535,0.879,2.397,-68.665,-45.166,10.132
0.421,0.981,2.560,-75.562,-29.297,-1.892
0.290,1.003,2.687,-74.646,-6.104,-19.714
0.151,0.949,2.707,-66.650,20.630,-42.175
0.016,0.828,2.662,-60.425,48.340,-65.308
-0.134,0.677,2.596,-59.082,75.012,-86.792
-0.294,0.514,2.550,-62.500,99.060,-105.530
-0.482,0.320,2.501,-63.354,121.399,-121.582
-0.685,0.101,2.452,-57.068,142.578,-133.057
-0.871,-0.146,2.381,-45.593,163.025,-137.512
-1.033,-0.371,2.277,-30.640,183.105,-134.033
-1.150,-0.612,2.133,-12.207,202.698,-122.009
-1.219,-0.833,1.978,-0.305,221.497,-102.905
-1.291,-1.022,1.842,-0.427,238.525,-79.163
-1.396,-1.146,1.748,-8.911,254.761,-52.673
-1.510,-1.177,1.661,-22.095,273.865,-22.949
-1.612,-1.159,1.503,-27.832,295.593,8.179
-1.691,-1.155,1.273,-20.630,318.054,40.894
-1.782,-1.103,0.995,-14.587,338.196,73.120
-1.863,-1.026,0.715,-14.709,355.286,104.492
-1.902,-0.981,0.454,-16.907,368.408,136.841
-1.860,-0.848,0.325,-24.170,377.930,169.739
-2.022,-0.758,0.179,-21.118,382.385,204.468
-2.084,-0.565,0.112,-15.625,385.803,238.586
-2.160,-0.334,-0.046,-4.578,390.076,270.325
-2.271,-0.110,-0.327,14.221,393.616,303.040
-2.294,0.054,-0.575,22.766,393.677,333.618
-2.293,0.260,-0.776,15.991,388.184,358.093
-2.253,0.445,-0.958,7.324,383.667,379.150
-2.234,0.650,-1.079,5.188,381.104,399.231
-2.317,0.884,-1.269,16.113,374.756,417.786
-2.298,1.144,-1.610,43.335,363.831,437.622
-2.239,1.452,-1.819,85.632,340.332,456.299
-2.245,1.708,-1.968,135.986,294.495,468.262
-2.099,1.918,-1.943,184.204,233.643,472.534
-2.000,2.071,-1.742,217.163,168.152,470.581
-2.052,2.150,-1.516,231.812,108.093,463.745
-2.048,2.222,-1.392,220.398,63.354,455.933
-1.993,2.330,-1.422,193.054,34.058,447.571
-1.889,2.506,-1.495,156.921,9.705,437.500
-1.784,2.757,-1.544,120.911,-18.555,421.814
-1.630,3.045,-1.519,96.619,-53.894,397.461
-1.479,3.319,-1.439,85.510,-93.872,365.051
-1.387,3.587,-1.308,82.825,-133.911,324.585
-1.350,3.769,-1.101,82.581,-169.373,273.132
-1.347,3.915,-0.926,84.961,-195.801,209.595
-1.274,3.914,-0.792,102.295,-211.792,136.047
-1.229,3.793,-0.720,124.634,-220.581,56.885
-1.259,3.484,-0.709,146.729,-229.126,-20.752
-1.275,3.129,-0.694,160.400,-239.136,-91.125
-1.344,2.740,-0.699,169.128,-251.526,-149.170
-1.339,2.384,-0.681,171.631,-263.367,-193.054
-1.318,2.117,-0.646,162.842,-274.536,-225.891
-1.187,1.955,-0.551,141.418,-287.048,-249.329
-1.014,1.900,-0.349,107.178,-301.025,-265.259
-0.961,1.947,-0.087,74.890,-315.491,-278.748
-1.003,2.019,0.235,44.800,-325.256,-295.654
-1.061,2.120,0.569,13.184,-326.416,-321.289
-1.153,2.142,0.863,-7.080,-320.679,-355.652
-1.289,2.133,1.084,-11.108,-312.073,-395.874
-1.451,2.014,1.258,8.423,-302.979,-438.538
-1.659,1.865,1.420,46.143,-293.640,-481.140
-1.923,1.631,1.516,91.125,-282.349,-521.362
-2.182,1.347,1.523,133.606,-265.198,-557.495
-2.352,1.128,1.461,166.077,-243.774,-586.731
-2.570,0.917,1.362,179.077,-222.778,-608.032
-2.611,0.441,1.348,170.471,-206.482,-624.023
-2.730,0.079,1.469,146.240,-192.993,-628.540
-2.596,-0.403,1.617,118.774,-180.298,-616.272
-2.250,-0.727,1.754,83.313,-165.222,-584.473
-1.875,-0.984,1.782,79.468,-146.729,-534.851
-1.442,-1.096,1.716,99.731,-125.793,-475.891
-1.111,-1.162,1.530,136.841,-106.689,-414.917
-1.067,-1.191,1.346,167.847,-90.759,-358.765
-0.956,-1.205,1.178,177.063,-75.867,-310.608
-0.853,-1.327,1.026,161.438,-60.852,-267.395
-0.694,-1.442,0.947,118.958,-45.227,-225.464
-0.428,-1.454,0.899,68.359,-30.151,-180.725
-0.228,-1.396,0.810,36.072,-19.226,-131.958
-0.097,-1.224,0.734,21.240,-14.893,-81.848
0.035,-1.019,0.671,16.052,-17.151,-33.691
0.128,-0.752,0.601,16.541,-22.461,8.301
0.202,-0.481,0.566,18.494,-28.809,41.565
0.287,-0.188,0.593,16.479,-35.400,64.941
0.352,0.085,0.681,19.287,-42.053,78.979
0.380,0.287,0.743,32.654,-47.363,85.388
0.364,0.425,0.707,47.241,-49.744,86.121
0.393,0.525,0.617,49.622,-47.852,84.473
0.510,0.626,0.581,34.241,-44.556,82.214
0.562,0.738,0.615,17.944,-44.861,77.393
0.559,0.806,0.699,13.367,-47.791,67.871
0.558,0.813,0.773,18.555,-49.438,54.199
0.584,0.778,0.814,27.893,-47.424,38.757
0.594,0.689,0.831,37.842,-41.809,24.048
0.576,0.588,0.834,42.419,-35.095,12.085
0.584,0.496,0.839,43.701,-29.114,5.127
0.573,0.442,0.826,43.823,-24.414,2.747
0.566,0.415,0.788,44.189,-20.691,3.601
0.548,0.426,0.735,42.236,-17.761,6.409
0.537,0.432,0.692,34.790,-15.503,9.644
0.540,0.469,0.694,20.020,-14.282,11.475
0.536,0.505,0.725,6.531,-14.221,11.536
0.521,0.526,0.766,1.892,-15.015,9.399
0.499,0.527,0.782,4.272,-16.052,5.554
0.493,0.514,0.789,9.155,-16.724,1.038
0.494,0.484,0.803,13.000,-17.151,-2.747
0.482,0.455,0.824,16.602,-18.188,-5.432
0.481,0.412,0.849,22.827,-19.287,-7.507
0.487,0.361,0.867,31.189,-20.264,-7.751
0.484,0.311,0.874,37.170,-20.569,-6.836
0.475,0.300,0.847,40.588,-19.043,-4.517
0.471,0.305,0.798,39.917,-15.015,-0.610
0.477,0.324,0.770,31.738,-11.475,3.357
0.475,0.358,0.770,19.348,-9.338,4.700
0.462,0.367,0.774,10.803,-8.057,4.150

0.691,0.301,1.791,-9.094,-54.626,0.244
0.657,0.344,1.957,-11.780,-50.781,-1.160
0.617,0.381,2.102,-12.512,-43.335,-4.456
0.552,0.382,2.212,-12.817,-32.593,-9.827
0.442,0.403,2.308,-17.578,-19.043,-17.456
0.336,0.384,2.435,-25.635,-3.052,-25.757
0.222,0.312,2.565,-35.889,17.212,-34.668
0.095,0.213,2.676,-49.500,43.762,-44.800
-0.063,0.146,2.696,-67.261,77.026,-53.955
-0.195,0.082,2.634,-81.787,113.953,-60.913
-0.332,0.057,2.483,-89.539,148.437,-66.101
-0.477,0.026,2.263,-86.975,176.514,-70.068
-0.594,-0.024,2.047,-76.843,196.228,-73.608
-0.721,-0.091,1.873,-61.279,205.566,-77.820
-0.844,-0.199,1.760,-38.879,204.651,-81.055
-0.968,-0.406,1.698,-11.230,199.890,-81.360
-1.103,-0.727,1.743,10.071,197.937,-77.454
-1.282,-1.073,1.887,15.686,204.712,-67.932
-1.504,-1.409,1.991,14.587,226.013,-48.279
-1.696,-1.667,1.909,10.376,264.404,-13.000
-1.821,-1.745,1.637,-5.493,314.819,38.269
-1.908,-1.601,1.199,-27.832,363.525,98.145
-1.954,-1.430,0.706,-38.147,399.780,158.569
-1.955,-1.152,0.233,-48.279,419.861,213.745
-1.917,-0.799,-0.200,-56.091,425.964,259.583
-1.906,-0.438,-0.525,-47.058,419.739,297.913
-1.935,-0.113,-0.709,-27.466,401.428,326.721
-1.982,0.153,-0.764,1.160,376.282,345.581
-2.094,0.257,-0.734,37.415,351.501,357.788
-2.195,0.263,-0.684,66.528,331.482,368.408
-2.293,0.238,-0.609,84.412,317.444,384.521
-2.413,0.254,-0.524,94.727,307.312,410.400
-2.616,0.381,-0.521,106.567,301.025,444.336
-2.794,0.572,-0.652,113.708,297.180,483.215
-2.834,0.902,-0.946,108.398,290.161,520.813
-2.805,1.320,-1.376,104.248,273.193,553.467
-2.623,1.726,-1.850,107.422,239.929,578.247
-2.328,2.170,-2.168,101.196,187.378,591.248
-2.151,2.637,-2.250,94.788,118.042,588.013
-2.056,3.019,-2.171,103.149,40.344,567.993
-1.939,3.355,-2.003,118.958,-34.180,534.546
-1.755,3.662,-1.732,135.498,-101.379,492.371
-1.612,3.924,-1.389,147.827,-160.706,439.270
-1.513,4.000,-1.036,146.851,-209.595,374.878
-1.432,4.000,-0.666,133.667,-239.929,299.377
-1.345,4.000,-0.348,122.986,-248.535,214.722
-1.286,4.000,-0.159,112.671,-240.906,124.390
-1.285,3.874,-0.065,111.023,-225.952,35.889
-1.271,3.516,-0.089,121.094,-210.754,-42.847
-1.266,3.093,-0.152,136.475,-199.707,-107.178
-1.296,2.741,-0.229,144.897,-195.679,-156.189
-1.278,2.442,-0.253,142.700,-198.120,-192.505
-1.264,2.188,-0.217,135.315,-204.773,-218.506
-1.198,2.008,-0.187,126.587,-212.219,-236.694
-1.011,1.894,-0.160,117.188,-218.323,-248.657
-0.850,1.922,-0.135,103.333,-223.511,-259.460
-0.832,1.996,-0.107,87.463,-229.614,-274.841
-0.836,2.061,-0.047,75.623,-236.084,-298.340
-0.818,2.066,0.050,66.528,-244.568,-330.078
-0.921,2.001,0.207,64.209,-255.676,-367.004
-1.110,1.888,0.419,64.392,-267.883,-406.067
-1.257,1.764,0.692,61.646,-276.611,-445.129
-1.454,1.623,0.922,61.951,-277.588,-481.873
-1.696,1.406,1.108,68.115,-267.883,-515.015
-1.957,1.232,1.279,64.697,-250.916,-544.495
-2.227,1.093,1.389,57.678,-234.009,-568.298
-2.713,0.721,1.357,62.988,-220.764,-587.158
-2.605,0.531,1.326,64.514,-210.754,-603.333
-2.573,0.342,1.404,82.886,-205.261,-608.398
-2.524,-0.133,1.335,121.338,-202.759,-598.083
-2.298,-0.467,1.359,136.902,-197.327,-575.317
-2.070,-0.796,1.389,140.747,-184.998,-541.748
-1.783,-1.031,1.419,134.644,-165.833,-500.916
-1.475,-1.185,1.456,123.596,-142.822,-454.346
-1.250,-1.273,1.461,117.004,-118.164,-403.992
-1.176,-1.249,1.487,107.849,-91.919,-352.905
-1.119,-1.221,1.419,88.257,-63.843,-304.077
-0.916,-1.233,1.277,64.575,-37.048,-258.240
-0.635,-1.238,1.122,36.804,-16.541,-213.379
-0.408,-1.124,0.996,10.681,-7.324,-167.603
-0.261,-1.007,0.941,4.089,-7.812,-123.474
-0.154,-0.870,0.873,11.353,-13.794,-83.618
-0.054,-0.679,0.796,18.494,-20.752,-48.279
0.039,-0.505,0.730,22.156,-27.161,-19.165
0.089,-0.336,0.695,21.057,-34.180,0.977
0.143,-0.169,0.702,18.311,-41.504,13.977
0.207,-0.057,0.725,21.912,-48.950,22.034
0.281,0.010,0.774,29.480,-56.396,27.161
0.312,0.043,0.843,37.170,-62.195,30.945
0.319,0.057,0.902,41.870,-64.270,35.339
0.343,0.072,0.949,40.466,-61.157,41.992
0.397,0.108,0.997,33.081,-52.185,50.354
0.442,0.189,1.035,22.339,-38.635,57.922
0.454,0.277,1.029,13.123,-23.193,62.622
0.474,0.356,0.995,3.784,-9.277,64.453
0.521,0.441,0.959,-4.089,1.404,64.270
0.533,0.527,0.918,-9.277,9.216,62.683
0.537,0.609,0.889,-14.038,13.428,59.082
0.553,0.683,0.857,-13.245,14.404,53.528
0.554,0.717,0.795,-4.639,14.771,46.631
0.550,0.718,0.730,4.578,14.343,38.574
0.538,0.710,0.683,6.775,11.719,28.259
0.518,0.696,0.679,7.507,5.981,16.968
0.509,0.609,0.721,14.648,-1.343,6.104
0.499,0.515,0.773,22.766,-6.531,-2.991
0.480,0.410,0.814,29.724,-10.254,-8.301
0.474,0.313,0.856,32.104,-10.803,-9.521
0.477,0.243,0.877,28.198,-8.423,-6.592
0.471,0.235,0.879,20.508,-3.723,-1.099
0.461,0.263,0.848,14.893,2.197,5.737
0.449,0.294,0.783,12.451,7.874,12.085
0.460,0.329,0.702,9.521,10.437,14.954
0.485,0.350,0.653,3.784,10.010,15.686
0.505,0.376,0.652,-0.244,5.188,15.564
0.499,0.398,0.673,0.305,-1.343,14.954
0.494,0.423,0.717,3.052,-6.348,13.977
0.484,0.422,0.763,10.193,-9.521,13.062
0.483,0.406,0.799,17.151,-11.414,10.925
0.491,0.381,0.822,22.400,-11.414,8.789

0.739,-0.157,2.012,-22.217,-50.903,-23.010
0.637,-0.137,2.239,-22.461,-46.204,-17.761
0.531,-0.139,2.433,-21.729,-34.607,-12.024
0.421,-0.142,2.583,-26.611,-14.832,-7.690
0.339,-0.126,2.673,-35.217,9.827,-4.272
0.284,-0.105,2.690,-39.856,37.537,-2.075
0.146,-0.094,2.661,-39.673,63.904,-1.953
-0.024,-0.045,2.631,-45.654,87.402,-6.165
-0.192,-0.021,2.616,-52.490,108.704,-15.198
-0.359,-0.038,2.592,-56.335,128.784,-27.039
-0.509,-0.087,2.550,-57.007,150.208,-39.673
-0.673,-0.148,2.489,-54.443,172.974,-51.392
-0.861,-0.208,2.405,-50.415,197.266,-60.547
-1.017,-0.323,2.275,-33.630,223.145,-63.965
-1.161,-0.548,2.107,-6.897,248.291,-59.692
-1.348,-0.830,1.908,10.315,272.034,-49.377
-1.548,-1.088,1.666,18.372,295.532,-30.029
-1.706,-1.288,1.375,18.127,318.237,1.038
-1.782,-1.375,1.047,14.465,335.693,44.128
-1.813,-1.379,0.717,14.832,344.299,95.276
-1.813,-1.275,0.462,13.977,343.262,147.522
-1.829,-1.095,0.246,21.545,335.815,197.632
-1.875,-0.864,0.078,27.832,325.989,242.737
-1.953,-0.571,-0.032,23.926,316.528,281.860
-2.075,-0.255,-0.205,12.390,310.852,315.857
-2.122,0.027,-0.440,-8.545,311.462,344.604
-2.032,0.258,-0.617,-46.570,316.895,365.967
-1.924,0.484,-0.650,-87.280,321.167,377.502
-1.943,0.646,-0.615,-109.192,324.951,381.836
-2.002,0.705,-0.600,-113.647,331.726,382.141
-2.081,0.789,-0.860,-100.220,339.417,382.996
-2.024,0.943,-1.531,-72.876,343.689,394.531
-1.818,1.224,-2.113,-53.528,332.825,415.222
-1.587,1.556,-2.279,-28.687,289.551,429.138
-1.454,1.714,-2.110,22.522,218.933,432.434
-1.467,1.863,-1.687,89.661,142.151,428.650
-1.683,1.919,-1.256,150.269,83.008,418.152
-1.792,1.923,-1.103,191.101,51.147,407.288
-1.698,1.970,-1.430,200.378,39.917,402.588
-1.377,2.167,-1.893,178.589,30.945,406.006
-1.163,2.412,-2.104,142.395,4.395,409.607
-1.080,2.724,-2.009,101.563,-42.786,405.090
-1.185,3.013,-1.786,72.571,-99.243,386.597
-1.290,3.150,-1.452,64.636,-152.283,352.417
-1.304,3.163,-1.112,73.120,-195.923,302.856
-1.240,3.035,-0.772,97.290,-225.464,245.056
-1.154,2.848,-0.446,119.507,-241.089,188.293
-1.063,2.699,-0.162,126.465,-245.239,140.808
-0.969,2.671,0.046,123.413,-239.929,105.347
-0.906,2.736,0.157,121.033,-227.051,76.721
-0.889,2.804,0.200,123.596,-212.402,46.997
-0.875,2.852,0.164,125.671,-201.355,10.437
-0.814,2.828,0.097,130.676,-194.763,-30.823
-0.739,2.747,0.039,138.062,-193.481,-75.439
-0.626,2.658,-0.009,142.639,-198.120,-119.995
-0.557,2.557,0.004,142.822,-207.092,-163.818
-0.563,2.454,0.124,136.597,-219.543,-207.092
-0.651,2.333,0.284,127.747,-230.408,-247.803
-0.722,2.208,0.498,114.929,-236.816,-286.804
-0.811,2.067,0.770,96.191,-237.427,-324.158
-0.992,1.913,1.076,75.867,-232.300,-359.985
-1.142,1.780,1.368,61.340,-220.520,-391.663
-1.220,1.678,1.542,59.875,-201.294,-418.579
-1.258,1.584,1.574,75.867,-177.063,-442.932
-1.346,1.469,1.523,103.088,-153.992,-468.323
-1.518,1.252,1.401,131.714,-135.803,-493.774
-1.404,1.265,1.242,147.217,-119.568,-519.043
-1.494,1.180,1.041,168.640,-104.492,-543.274
-1.766,1.013,0.770,200.256,-94.482,-564.697
-2.125,0.771,0.585,201.050,-93.079,-587.952
-2.434,0.559,0.610,156.982,-96.130,-611.328
-2.701,0.204,0.746,97.412,-101.501,-630.432
-2.440,-0.123,0.967,38.757,-107.300,-637.451
-2.340,-0.560,1.138,21.179,-113.586,-622.925
-2.174,-0.906,1.318,26.184,-115.601,-587.891
-1.872,-1.195,1.388,59.448,-112.549,-536.926
-1.508,-1.464,1.337,111.755,-105.530,-477.051
-1.247,-1.738,1.257,155.945,-95.947,-413.513
-1.006,-1.886,1.214,164.917,-82.031,-350.525
-0.831,-1.941,1.132,146.484,-61.768,-285.706
-0.599,-1.861,1.001,106.873,-37.964,-219.421
-0.396,-1.698,0.926,61.951,-16.296,-154.724
-0.275,-1.484,0.850,25.452,0.305,-96.252
-0.108,-1.217,0.745,2.991,10.803,-45.044
0.005,-0.955,0.602,-4.150,14.099,-3.723
0.119,-0.683,0.493,-4.089,10.193,26.855
0.208,-0.426,0.452,-2.258,0.916,49.011
0.299,-0.187,0.445,1.709,-11.475,64.026
0.363,-0.018,0.467,12.268,-27.466,73.181
0.411,0.093,0.521,21.362,-43.213,77.576
0.471,0.188,0.606,20.874,-55.481,79.773
0.526,0.259,0.720,12.695,-62.439,82.458
0.526,0.362,0.852,0.061,-63.293,84.290
0.538,0.426,0.972,-10.315,-57.312,84.290
0.571,0.487,1.061,-19.043,-44.922,81.665
0.599,0.544,1.099,-23.193,-28.992,75.500
0.620,0.589,1.050,-18.616,-11.658,67.627
0.655,0.589,0.924,-6.287,3.784,58.960
0.650,0.605,0.808,0.427,13.672,48.279
0.640,0.620,0.724,0.610,16.663,36.926
0.630,0.586,0.676,3.418,14.771,26.001
0.615,0.538,0.668,5.310,10.559,15.137
0.584,0.484,0.666,4.883,5.554,5.737
0.568,0.425,0.669,3.479,0.916,-0.549
0.586,0.367,0.688,3.235,-3.357,-2.869
0.572,0.312,0.710,6.714,-8.057,-3.357
0.574,0.267,0.729,12.085,-13.306,-2.930
0.573,0.232,0.746,19.043,-17.639,-0.854
0.545,0.216,0.775,25.330,-21.240,1.892
0.521,0.232,0.797,30.090,-22.827,4.639
0.501,0.250,0.819,33.997,-23.071,6.531
0.491,0.254,0.850,35.217,-22.949,6.409
0.486,0.248,0.871,32.776,-21.240,4.944
0.479,0.234,0.867,26.001,-17.639,3.540
0.497,0.223,0.863,15.686,-13.245,3.723
0.513,0.215,0.869,5.859,-9.338,5.737
0.525,0.226,0.889,-0.183,-6.104,8.972
0.506,0.238,0.880,-1.648,-2.441,11.902
0.504,0.246,0.835,-0.549,1.831,14.038

0.802,0.161,1.863,-35.645,-21.118,0.488
0.795,0.251,2.006,-39.001,-16.541,2.625
0.748,0.336,2.179,-37.781,-9.888,0.610
0.646,0.401,2.380,-38.330,1.160,-5.798
0.514,0.440,2.572,-42.175,20.630,-17.334
0.351,0.415,2.686,-44.495,47.546,-33.691
0.170,0.334,2.683,-43.640,79.834,-52.856
0.024,0.184,2.574,-42.053,113.525,-70.862
-0.122,0.010,2.440,-43.152,144.958,-83.862
-0.333,-0.138,2.322,-49.622,172.852,-92.590
-0.574,-0.311,2.206,-50.537,198.242,-97.473
-0.826,-0.613,2.090,-39.368,221.252,-97.717
-1.059,-1.046,1.942,-23.010,242.798,-89.600
-1.248,-1.363,1.764,-23.071,263.855,-69.397
-1.387,-1.531,1.483,-25.452,282.104,-34.546
-1.457,-1.571,1.068,-16.296,292.664,12.878
-1.388,-1.528,0.651,-7.019,291.321,66.772
-1.298,-1.384,0.315,-5.432,277.954,118.103
-1.264,-1.166,0.133,-13.550,257.568,164.551
-1.254,-0.881,0.078,-29.236,237.000,205.444
-1.264,-0.599,0.115,-43.579,221.985,238.647
-1.347,-0.398,0.210,-52.551,216.736,263.123
-1.454,-0.257,0.335,-60.242,222.839,281.128
-1.597,-0.215,0.418,-60.059,238.892,296.631
-1.771,-0.194,0.366,-48.340,263.306,315.186
-1.967,-0.114,0.151,-25.940,291.199,341.553
-2.115,0.076,-0.191,-1.038,313.965,375.183
-2.270,0.420,-0.849,16.602,325.623,412.109
-2.117,0.812,-1.550,-0.061,325.989,446.106
-1.914,1.217,-1.879,-42.175,307.190,464.844
-1.834,1.584,-1.792,-68.909,263.733,466.309
-1.770,1.790,-1.476,-48.218,208.557,458.923
-1.802,1.864,-1.041,8.240,160.522,448.120
-1.901,1.871,-0.693,72.937,130.066,437.927
-1.955,1.902,-0.568,131.165,116.821,431.946
-1.851,2.048,-0.759,176.819,111.206,432.617
-1.715,2.260,-0.955,208.984,99.731,437.378
-1.679,2.476,-1.021,223.206,70.862,435.913
-1.686,2.702,-1.072,220.093,30.945,425.232
-1.569,2.866,-1.105,213.318,-7.568,407.898
-1.469,3.070,-1.147,199.585,-44.678,383.423
-1.341,3.310,-1.087,170.654,-84.167,351.868
-1.241,3.533,-0.859,127.197,-125.366,313.843
-1.236,3.913,-0.673,74.402,-161.621,269.104
-1.048,4.000,-0.486,54.932,-186.890,218.689
-1.042,4.000,-0.337,97.473,-209.106,152.649
-1.218,4.000,-0.092,120.178,-230.469,62.317
-1.348,3.891,0.188,120.239,-241.821,-38.147
-1.457,3.403,0.391,115.417,-237.976,-135.132
-1.484,2.847,0.468,117.188,-222.107,-213.318
-1.417,2.332,0.506,121.338,-205.688,-265.564
-1.270,1.961,0.511,125.000,-194.214,-296.143
-1.058,1.738,0.495,129.456,-186.951,-312.988
-0.884,1.565,0.470,141.479,-183.472,-322.571
-0.746,1.437,0.530,149.719,-182.190,-329.468
-0.645,1.347,0.736,138.062,-181.274,-335.571
-0.560,1.327,1.060,102.905,-175.537,-342.468
-0.472,1.409,1.383,56.274,-161.499,-352.234
-0.484,1.526,1.569,22.583,-139.099,-368.347
-0.521,1.639,1.625,9.460,-115.540,-394.165
-0.629,1.667,1.590,15.747,-96.619,-431.030
-0.923,1.560,1.431,36.682,-83.923,-477.112
-1.128,1.409,1.269,60.852,-76.233,-530.518
-1.538,1.184,1.085,102.356,-71.472,-583.069
-2.062,0.781,0.902,147.339,-70.129,-629.150
-2.519,0.272,0.893,158.081,-71.289,-667.969
-2.751,-0.252,1.000,135.498,-69.153,-693.115
-2.794,-0.616,1.116,84.961,-65.186,-697.876
-2.495,-0.766,1.237,38.635,-65.186,-680.054
-2.359,-1.050,1.234,30.273,-68.481,-638.916
-2.157,-1.140,1.290,12.939,-74.707,-586.670
-1.823,-1.136,1.356,1.465,-82.397,-529.053
-1.517,-1.149,1.318,16.357,-88.501,-469.971
-1.378,-1.208,1.178,46.570,-87.585,-416.687
-1.275,-1.423,1.010,69.275,-80.017,-375.183
-1.074,-1.757,0.880,75.500,-69.641,-339.600
-0.865,-2.067,0.816,64.575,-58.777,-297.424
-0.627,-2.234,0.769,45.898,-47.913,-241.333
-0.361,-2.202,0.718,26.978,-38.330,-172.180
-0.156,-2.003,0.666,12.329,-33.752,-97.778
-0.032,-1.673,0.631,0.488,-34.485,-26.611
0.062,-1.260,0.660,-11.475,-37.964,33.813
0.122,-0.811,0.714,-21.423,-40.894,81.360
0.184,-0.397,0.762,-27.161,-41.443,116.028
0.263,0.015,0.817,-29.968,-39.551,138.550
0.363,0.398,0.844,-28.809,-35.889,150.085
0.454,0.691,0.856,-15.991,-31.799,150.024
0.472,0.880,0.864,-0.183,-27.954,136.719
0.471,0.960,0.867,8.545,-24.048,111.511
0.522,0.934,0.855,11.719,-19.409,80.261
0.608,0.808,0.840,14.587,-15.991,50.476
0.640,0.642,0.835,19.958,-13.306,27.344
0.630,0.523,0.841,21.423,-11.597,14.038
0.620,0.438,0.844,20.325,-9.094,8.118
0.610,0.375,0.845,19.348,-7.141,5.676
0.583,0.325,0.841,17.090,-5.554,4.700
0.570,0.281,0.817,13.306,-4.700,5.188
0.559,0.267,0.802,7.263,-3.845,6.653
0.549,0.266,0.776,5.005,-4.456,8.362
0.554,0.270,0.751,8.301,-6.592,10.620
0.545,0.259,0.739,14.160,-10.315,12.146
0.514,0.259,0.758,17.151,-14.832,12.634
0.505,0.251,0.785,17.822,-18.372,12.512
0.495,0.265,0.854,17.090,-20.447,12.329
0.487,0.274,0.931,17.578,-21.057,12.085
0.485,0.288,0.984,18.677,-18.616,11.841
0.478,0.302,0.991,18.982,-14.160,11.597
0.475,0.313,0.953,18.555,-8.545,11.230
0.489,0.330,0.894,17.273,-4.089,11.353
0.483,0.327,0.841,17.761,-1.770,11.353
0.482,0.325,0.804,16.785,-1.160,10.681
0.488,0.306,0.783,15.930,-1.831,9.827
0.478,0.286,0.773,14.282,-2.991,8.179
0.485,0.256,0.784,12.329,-3.723,6.958
0.501,0.229,0.799,11.658,-4.395,6.531
0.500,0.210,0.812,8.728,-4.944,7.080
0.500,0.205,0.828,4.822,-5.249,8.728
0.501,0.221,0.834,3.662,-5.554,10.986
0.507,0.237,0.825,6.470,-6.409,12.817

0.750,0.422,1.656,-17.395,-54.382,0.610
0.704,0.473,1.867,-18.616,-53.162,-3.540
0.655,0.461,2.084,-22.217,-44.434,-12.695
0.585,0.424,2.246,-27.771,-29.114,-26.917
0.530,0.325,2.330,-32.227,-8.911,-41.382
0.493,0.220,2.358,-35.278,13.550,-51.819
0.426,0.122,2.329,-35.889,35.217,-57.678
0.331,0.046,2.304,-39.673,54.871,-60.913
0.193,-0.011,2.288,-49.927,74.951,-64.453
0.007,-0.086,2.284,-62.683,96.252,-69.946
-0.171,-0.134,2.249,-81.726,117.188,-77.393
-0.322,-0.213,2.199,-95.947,137.085,-84.961
-0.471,-0.328,2.140,-101.379,153.931,-90.210
-0.612,-0.452,2.092,-100.830,167.053,-91.797
-0.784,-0.543,2.068,-94.604,179.749,-87.769
-0.924,-0.638,2.054,-85.327,192.932,-78.003
-1.040,-0.710,2.031,-74.829,207.153,-65.063
-1.145,-0.790,2.002,-65.063,223.267,-50.964
-1.259,-0.863,1.938,-56.885,242.249,-35.339
-1.368,-0.924,1.820,-51.514,263.611,-16.174
-1.454,-0.997,1.638,-46.814,289.062,7.568
-1.503,-1.020,1.411,-47.180,315.613,35.828
-1.523,-0.952,1.162,-47.302,338.745,67.993
-1.533,-0.841,0.879,-34.790,356.628,103.516
-1.576,-0.702,0.597,-15.869,368.042,139.099
-1.656,-0.498,0.281,-3.479,372.375,173.096
-1.715,-0.293,-0.093,0.061,373.047,205.261
-1.692,-0.114,-0.447,-11.658,370.850,233.582
-1.662,0.053,-0.726,-38.452,361.450,255.066
-1.575,0.222,-0.863,-65.796,343.750,269.775
-1.491,0.332,-0.847,-71.289,321.594,280.029
-1.516,0.350,-0.713,-55.847,300.293,287.659
-1.602,0.386,-0.496,-36.194,286.377,296.509
-1.713,0.412,-0.302,-9.338,284.729,311.768
-1.893,0.470,-0.275,27.466,294.373,335.632
-2.079,0.635,-0.571,62.012,311.890,367.126
-2.141,0.952,-1.101,73.059,331.543,402.588
-2.052,1.321,-1.509,64.636,339.417,431.458
-2.030,1.669,-1.699,68.176,321.655,445.251
-2.007,1.826,-1.794,103.516,276.672,446.899
-1.899,1.974,-1.820,148.926,216.492,440.552
-1.815,2.120,-1.889,190.613,154.541,431.458
-1.623,2.267,-1.945,208.435,100.220,424.011
-1.476,2.449,-1.931,199.280,48.462,414.734
-1.439,2.633,-1.831,180.237,-4.517,397.644
-1.384,2.838,-1.659,160.400,-57.922,371.460
-1.283,3.007,-1.440,155.273,-109.619,338.013
-1.177,3.196,-1.176,161.987,-154.419,298.889
-1.088,3.365,-0.958,175.171,-189.514,255.310
-1.039,3.455,-0.768,180.359,-213.867,205.566
-1.003,3.518,-0.586,164.978,-226.318,148.682
-0.972,3.538,-0.426,137.634,-228.699,87.952
-0.967,3.515,-0.296,114.868,-225.769,24.414
-0.983,3.395,-0.224,104.370,-222.229,-38.452
-1.010,3.161,-0.173,106.506,-221.313,-99.121
-1.003,2.933,-0.063,104.431,-224.487,-152.954
-0.937,2.715,0.081,103.455,-230.042,-196.838
-0.818,2.525,0.242,109.558,-235.107,-230.957
-0.691,2.373,0.354,114.502,-234.741,-257.812
-0.571,2.256,0.391,115.479,-226.807,-280.823
-0.463,2.177,0.382,108.398,-215.881,-303.894
-0.420,2.113,0.378,95.093,-207.397,-329.285
-0.438,2.074,0.463,79.102,-205.872,-357.239
-0.493,2.035,0.659,60.608,-210.754,-388.428
-0.650,2.019,0.838,44.495,-216.187,-424.011
-0.870,1.965,0.970,37.659,-217.224,-465.149
-1.191,1.826,1.003,43.335,-215.393,-511.414
-1.756,1.472,0.954,51.575,-214.111,-561.096
-2.082,1.301,0.982,45.349,-216.064,-612.000
-2.554,0.982,0.995,66.772,-220.154,-653.442
-2.935,0.477,0.837,106.018,-223.511,-679.993
-3.174,0.122,0.830,129.211,-230.347,-692.566
-3.279,-0.397,0.963,133.667,-240.356,-691.467
-2.963,-0.959,1.236,115.417,-247.009,-673.889
-2.523,-1.709,1.526,91.919,-242.920,-632.629
-2.120,-2.200,1.870,66.040,-222.168,-563.904
-1.689,-2.316,2.060,39.795,-184.082,-472.656
-1.289,-2.191,1.972,39.978,-137.085,-370.850
-1.067,-1.948,1.688,54.504,-92.468,-278.564
-0.901,-1.685,1.347,62.317,-58.655,-207.397
-0.677,-1.503,0.996,59.143,-37.476,-152.954
-0.502,-1.315,0.715,39.734,-28.381,-106.567
-0.311,-1.088,0.521,9.033,-29.785,-63.232
-0.136,-0.819,0.444,-21.912,-39.612,-23.010
0.033,-0.496,0.483,-42.542,-56.213,9.827
0.140,-0.157,0.615,-36.316,-78.369,33.203
0.170,0.071,0.742,0.061,-101.624,46.814
0.196,0.267,0.902,40.039,-120.483,50.354
0.233,0.347,1.074,72.205,-131.348,46.082
0.294,0.347,1.262,88.074,-132.141,38.635
0.357,0.331,1.435,89.111,-121.521,31.250
0.393,0.299,1.542,85.632,-99.915,26.245
0.401,0.279,1.549,79.712,-70.007,24.292
0.371,0.284,1.415,68.909,-36.255,25.208
0.394,0.298,1.198,48.218,-5.188,27.771
0.445,0.324,1.006,15.198,17.639,30.029
0.476,0.393,0.916,-20.691,29.968,30.518
0.472,0.448,0.889,-43.701,33.630,28.809
0.458,0.473,0.859,-45.837,31.860,24.536
0.449,0.487,0.801,-33.142,27.588,18.860
0.435,0.458,0.729,-12.085,21.606,12.878
0.445,0.415,0.679,8.423,12.878,7.080
0.464,0.367,0.679,24.414,1.587,2.991
0.454,0.307,0.725,37.048,-8.728,1.160
0.433,0.275,0.766,41.443,-16.052,1.099
0.422,0.264,0.786,36.072,-19.226,3.296
0.445,0.298,0.805,20.264,-19.287,7.019
0.460,0.357,0.858,2.502,-17.334,10.071
0.461,0.395,0.912,-9.338,-14.526,11.047
0.457,0.404,0.948,-11.230,-10.132,9.277
0.448,0.374,0.940,-5.310,-5.737,5.920
0.439,0.321,0.913,4.333,-2.869,3.418
0.435,0.276,0.882,13.306,-2.075,3.174
0.432,0.265,0.880,19.836,-3.296,4.578
0.425,0.265,0.896,27.039,-4.883,7.080
0.411,0.269,0.900,34.973,-6.165,9.644
0.427,0.287,0.883,40.710,-6.104,11.353
0.410,0.282,0.845,42.236,-4.883,12.329
0.412,0.305,0.817,33.386,-3.784,13.000

0.649,0.359,1.825,-7.812,-71.167,13.489
0.596,0.432,2.033,-5.310,-72.021,11.414
0.522,0.481,2.264,-5.127,-65.796,5.310
0.408,0.480,2.489,-6.104,-50.598,-4.456
0.284,0.458,2.630,-8.118,-26.855,-17.090
0.158,0.387,2.648,-3.296,1.587,-30.396
-0.003,0.284,2.552,5.615,30.762,-42.480
-0.133,0.120,2.463,11.475,56.580,-53.345
-0.289,-0.021,2.391,7.874,76.965,-63.599
-0.478,-0.158,2.363,2.502,94.910,-71.777
-0.672,-0.326,2.334,0.977,113.586,-76.294
-0.838,-0.475,2.257,2.808,133.606,-77.454
-0.961,-0.632,2.112,12.085,154.358,-73.914
-1.062,-0.797,1.934,26.245,173.706,-64.148
-1.145,-0.905,1.734,39.001,189.880,-49.072
-1.246,-1.002,1.494,52.612,203.613,-27.893
-1.324,-1.169,1.250,59.448,216.492,-1.892
-1.362,-1.257,1.063,47.180,227.112,26.978
-1.379,-1.232,0.935,25.940,235.718,59.265
-1.385,-1.165,0.820,13.245,243.347,95.459
-1.436,-1.033,0.711,6.592,250.916,132.202
-1.525,-0.857,0.615,4.211,259.399,168.030
-1.668,-0.705,0.516,7.324,269.043,201.904
-1.846,-0.550,0.375,8.972,279.541,234.619
-1.974,-0.442,0.141,11.841,291.138,268.433
-2.045,-0.371,-0.103,10.315,301.636,304.687
-2.100,-0.233,-0.297,-0.061,308.350,340.454
-2.203,-0.049,-0.484,-9.460,310.791,376.160
-2.321,0.172,-0.759,-12.756,310.120,410.950
-2.373,0.477,-1.284,-16.663,306.519,445.740
-2.256,0.872,-1.925,-25.757,294.861,480.530
-2.124,1.257,-2.298,-29.846,266.052,510.559
-1.968,1.581,-2.385,-13.489,208.374,531.677
-1.780,1.983,-2.312,14.526,126.648,536.255
-1.682,2.329,-2.065,72.327,35.950,529.175
-1.678,2.607,-1.647,133.362,-50.171,514.221
-1.685,2.828,-1.153,175.293,-123.413,492.310
-1.722,2.971,-0.694,181.213,-175.354,461.243
-1.653,3.035,-0.278,149.170,-197.876,419.800
-1.501,3.030,-0.022,101.624,-192.505,372.375
-1.297,3.006,0.012,59.692,-170.044,326.111
-1.149,3.018,-0.032,40.039,-148.254,284.668
-1.194,3.001,-0.122,40.222,-142.700,247.925
-1.200,2.959,-0.142,53.528,-151.917,214.111
-1.113,2.901,-0.048,70.618,-169.250,181.213
-1.076,2.904,0.134,82.336,-187.805,150.879
-1.045,2.968,0.346,88.196,-197.876,121.765
-1.028,3.050,0.479,92.529,-195.496,89.661
-0.985,3.160,0.519,95.459,-186.707,50.659
-0.920,3.129,0.511,102.661,-178.345,3.906
-0.845,3.035,0.506,109.436,-175.171,-47.668
-0.803,2.891,0.548,115.723,-176.697,-101.868
-0.788,2.674,0.659,123.962,-180.542,-153.687
-0.769,2.472,0.870,122.192,-182.495,-202.026
-0.774,2.324,1.120,110.901,-179.077,-245.605
-0.818,2.205,1.360,99.609,-166.809,-284.912
-0.879,2.094,1.510,90.942,-145.386,-321.777
-0.922,1.952,1.528,89.844,-118.530,-356.262
-0.902,1.755,1.471,99.487,-92.407,-388.000
-0.891,1.537,1.420,112.183,-71.045,-416.748
-0.898,1.322,1.385,123.291,-55.786,-441.772
-0.887,1.162,1.362,133.667,-44.312,-463.745
-0.864,1.128,1.364,142.822,-33.691,-483.093
-0.959,1.186,1.331,148.437,-23.010,-503.784
-1.190,1.288,1.225,148.193,-12.024,-530.945
-1.556,1.324,1.153,142.517,-3.723,-569.153
-2.202,1.268,1.121,131.104,0.854,-617.187
-2.802,0.995,1.115,114.197,4.089,-670.593
-3.290,0.191,1.041,102.173,7.690,-720.886
-3.415,-0.628,1.041,83.008,9.094,-753.296
-3.188,-1.661,1.006,64.880,7.507,-753.357
-2.766,-2.347,1.026,16.357,5.432,-713.806
-1.978,-2.543,1.079,-5.981,2.441,-633.362
-1.513,-2.636,0.991,37.842,1.526,-521.179
-1.245,-2.455,0.834,77.393,0.000,-401.306
-1.071,-2.148,0.674,97.961,-5.188,-295.288
-0.935,-1.845,0.563,94.849,-10.925,-213.318
-0.829,-1.606,0.519,64.209,-12.390,-153.259
-0.709,-1.366,0.558,12.817,-9.644,-108.521
-0.506,-1.162,0.615,-29.541,-6.592,-70.923
-0.337,-0.991,0.643,-48.157,-7.935,-36.316
-0.199,-0.789,0.698,-47.607,-17.212,-6.470
-0.047,-0.561,0.759,-30.151,-32.166,20.630
0.126,-0.302,0.839,-7.874,-47.668,47.791
0.228,-0.028,0.925,11.841,-60.913,69.336
0.260,0.203,1.008,26.123,-69.336,80.444
0.261,0.388,1.078,31.677,-68.970,80.200
0.265,0.481,1.091,29.358,-58.899,70.618
0.310,0.538,1.036,23.437,-41.626,55.908
0.389,0.513,0.946,20.203,-23.193,41.016
0.453,0.414,0.845,22.644,-9.521,27.588
0.471,0.319,0.774,19.104,-4.211,17.151
0.489,0.237,0.771,10.986,-4.395,11.658
0.500,0.209,0.810,5.798,-6.958,10.559
0.517,0.211,0.851,4.517,-9.094,12.390
0.528,0.244,0.892,3.601,-8.911,14.893
0.529,0.300,0.905,4.333,-7.263,16.235
0.524,0.327,0.862,9.644,-6.348,16.846
0.511,0.335,0.810,15.320,-7.263,16.968
0.501,0.344,0.775,15.869,-10.803,16.724
0.490,0.370,0.772,15.442,-16.113,15.747
0.465,0.348,0.803,20.569,-22.888,13.733
0.427,0.345,0.848,24.780,-28.137,9.644
0.405,0.281,0.895,29.114,-30.090,4.700
0.389,0.198,0.926,30.945,-29.724,0.061
0.388,0.126,0.955,27.405,-26.978,-2.747
0.392,0.096,0.995,20.569,-24.231,-1.099
0.387,0.096,1.022,15.930,-20.752,3.235
0.379,0.120,1.049,9.888,-16.235,9.033
0.385,0.151,1.068,4.272,-11.719,14.160
0.383,0.194,1.037,-0.610,-5.615,18.066
0.378,0.257,0.958,-2.502,-0.305,21.545
0.391,0.312,0.877,0.183,3.296,23.682
0.426,0.340,0.820,4.456,2.808,22.827
0.433,0.323,0.800,7.202,-1.343,18.311
0.405,0.311,0.828,6.287,-5.249,12.634
0.397,0.282,0.874,7.080,-9.521,8.179
0.405,0.255,0.917,9.399,-12.207,5.127
0.404,0.254,0.957,9.827,-12.939,3.784

0.703,0.252,1.789,-44.678,-23.071,-3.052
0.728,0.353,1.856,-49.255,-17.273,-1.221
0.719,0.484,1.916,-51.147,-11.292,-1.038
0.672,0.604,1.980,-47.668,-6.165,-4.333
0.564,0.717,2.071,-42.236,-1.648,-13.733
0.434,0.740,2.196,-33.081,5.127,-29.297
0.270,0.667,2.323,-25.330,16.602,-50.232
0.099,0.546,2.460,-23.682,33.936,-73.914
-0.088,0.401,2.541,-27.222,57.312,-96.191
-0.307,0.203,2.549,-28.320,86.365,-112.732
-0.515,0.013,2.518,-32.349,117.676,-123.535
-0.726,-0.159,2.454,-37.476,148.926,-128.296
-0.934,-0.345,2.354,-37.476,179.932,-127.380
-1.139,-0.535,2.190,-29.053,210.205,-119.995
-1.283,-0.792,1.955,-10.315,238.098,-105.652
-1.375,-1.093,1.712,7.690,260.925,-84.229
-1.476,-1.332,1.479,13.855,278.381,-54.810
-1.594,-1.452,1.271,6.714,292.786,-18.250
-1.659,-1.532,1.060,2.258,305.908,24.353
-1.723,-1.505,0.829,-0.610,315.430,71.350
-1.775,-1.423,0.606,1.221,318.848,120.361
-1.821,-1.298,0.438,3.601,316.528,170.105
-1.875,-1.102,0.324,3.479,311.768,218.872
-1.971,-0.819,0.167,2.686,309.631,265.625
-2.049,-0.490,-0.070,-6.531,313.599,309.509
-2.093,-0.197,-0.317,-24.780,320.984,345.398
-2.107,0.104,-0.485,-47.729,324.707,370.422
-2.052,0.390,-0.569,-56.519,322.449,386.353
-2.021,0.623,-0.571,-43.945,315.186,395.325
-2.053,0.853,-0.539,-15.625,304.504,400.269
-2.085,1.037,-0.514,26.733,292.542,405.884
-2.135,1.133,-0.472,82.153,280.823,414.917
-2.302,1.229,-0.512,138.794,268.921,428.833
-2.471,1.367,-0.893,184.082,259.338,451.843
-2.423,1.642,-1.481,200.684,249.573,483.093
-2.314,2.096,-1.969,193.054,224.609,511.780
-2.113,2.425,-2.326,187.500,171.997,531.860
-1.809,2.859,-2.475,170.410,98.938,537.415
-1.650,3.219,-2.426,152.710,14.893,522.827
-1.651,3.500,-2.125,127.869,-76.355,486.755
-1.707,3.781,-1.619,93.140,-165.161,434.021
-1.587,3.945,-1.030,73.181,-234.314,374.084
-1.467,4.000,-0.468,73.730,-274.292,306.702
-1.332,4.000,-0.027,87.036,-286.987,231.995
-1.189,4.000,0.283,99.365,-278.259,151.184
-1.093,3.889,0.422,103.577,-253.784,70.374
-1.049,3.654,0.409,103.821,-223.694,-2.991
-1.028,3.426,0.295,102.539,-198.914,-65.674
-1.042,3.140,0.184,101.929,-185.913,-119.629
-1.065,2.846,0.121,95.642,-185.669,-167.786
-1.016,2.549,0.157,87.830,-194.275,-208.801
-0.836,2.310,0.300,78.003,-207.153,-239.075
-0.694,2.175,0.496,67.383,-218.506,-258.667
-0.602,2.125,0.685,59.082,-222.473,-272.644
-0.480,2.202,0.802,46.753,-218.506,-287.354
-0.395,2.343,0.845,35.034,-211.670,-309.265
-0.432,2.456,0.825,33.142,-208.313,-342.224
-0.605,2.443,0.809,39.429,-210.449,-386.963
-0.918,2.344,0.845,42.969,-218.262,-441.895
-1.286,2.087,0.937,50.293,-229.614,-500.061
-1.637,1.729,1.055,66.223,-239.990,-555.176
-2.205,1.174,1.183,82.520,-245.911,-604.004
-2.451,0.836,1.231,84.229,-243.408,-644.287
-2.674,0.562,1.233,97.656,-232.178,-670.471
-2.847,0.072,1.021,145.630,-219.788,-680.176
-2.849,-0.446,0.987,169.495,-212.036,-676.880
-2.730,-0.932,1.136,152.405,-204.956,-659.729
-2.495,-1.364,1.325,124.634,-190.063,-623.596
-2.025,-1.567,1.453,97.595,-166.199,-567.688
-1.623,-1.661,1.409,95.459,-138.550,-498.169
-1.479,-1.642,1.312,109.436,-111.328,-425.415
-1.365,-1.637,1.189,118.835,-87.036,-359.741
-1.205,-1.651,1.050,114.746,-65.369,-302.368
-1.001,-1.631,0.888,98.511,-45.837,-249.207
-0.780,-1.541,0.740,71.045,-29.968,-196.777
-0.625,-1.419,0.615,39.551,-21.851,-146.362
-0.479,-1.254,0.570,10.925,-22.522,-100.525
-0.267,-1.081,0.562,-4.028,-30.457,-56.580
-0.103,-0.859,0.574,-7.507,-43.884,-16.296
-0.017,-0.562,0.625,-4.944,-59.509,16.663
0.012,-0.315,0.646,6.653,-73.730,43.091
0.061,-0.108,0.705,17.151,-86.121,60.913
0.156,0.123,0.833,26.550,-97.229,69.641
0.192,0.260,0.953,42.053,-105.042,71.899
0.216,0.425,1.088,47.974,-107.788,68.237
0.222,0.510,1.196,47.180,-104.858,61.462
0.265,0.537,1.298,47.424,-95.032,53.711
0.320,0.531,1.368,42.358,-78.430,45.532
0.354,0.530,1.390,35.522,-57.007,36.499
0.371,0.529,1.343,29.785,-33.569,28.259
0.363,0.493,1.246,27.283,-11.902,20.630
0.358,0.444,1.138,20.264,4.761,12.512
0.363,0.381,1.049,8.484,14.832,5.615
0.361,0.323,0.992,-3.235,19.470,2.075
0.356,0.280,0.957,-14.709,21.057,2.563
0.366,0.296,0.947,-25.452,21.240,5.859
0.384,0.311,0.929,-24.536,19.226,9.460
0.395,0.336,0.888,-13.062,15.381,12.878
0.396,0.356,0.842,1.404,10.803,15.625
0.385,0.366,0.824,11.841,5.188,16.418
0.387,0.355,0.830,15.869,-0.183,15.259
0.388,0.360,0.864,15.503,-3.418,13.977
0.384,0.371,0.889,14.160,-4.333,13.062
0.377,0.371,0.900,14.526,-3.967,12.390
0.382,0.368,0.910,13.062,-3.357,11.353
0.381,0.354,0.920,10.803,-2.869,10.559
0.362,0.349,0.916,7.874,-2.014,10.376
0.356,0.342,0.915,5.615,-0.916,10.559
0.366,0.326,0.914,3.784,0.122,10.681
0.356,0.311,0.924,1.099,1.160,9.827
0.334,0.286,0.914,-0.305,2.747,9.216
0.337,0.279,0.885,-1.221,4.761,9.766
0.367,0.312,0.858,-2.869,5.859,11.597
0.362,0.351,0.852,-2.686,4.211,12.939
0.364,0.391,0.862,0.793,0.000,12.390
0.364,0.389,0.885,8.911,-4.639,10.010
0.364,0.349,0.920,18.372,-8.057,7.080
0.352,0.325,0.928,26.184,-9.277,5.005
0.333,0.302,0.914,30.762,-8.728,4.883

0.642,0.560,1.775,-69.092,-66.406,22.522
0.685,0.716,1.930,-73.303,-60.120,24.170
0.696,0.884,2.071,-68.054,-54.626,23.376
0.657,1.075,2.236,-63.171,-49.683,16.968
0.539,1.226,2.449,-64.026,-41.870,1.953
0.344,1.343,2.661,-70.679,-26.978,-24.658
0.125,1.335,2.860,-74.890,-4.700,-61.890
-0.133,1.227,3.008,-72.266,23.560,-103.821
-0.407,1.025,3.103,-66.589,54.932,-144.348
-0.674,0.750,3.132,-55.176,88.135,-179.504
-0.937,0.431,3.114,-41.321,122.314,-206.604
-1.168,0.096,3.018,-28.137,156.189,-223.938
-1.433,-0.163,2.860,-13.184,189.026,-230.774
-1.686,-0.583,2.689,13.550,221.252,-226.562
-1.932,-1.119,2.519,36.743,253.601,-211.609
-2.121,-1.616,2.305,38.086,288.147,-183.044
-2.202,-1.905,2.016,16.418,325.623,-136.536
-2.110,-2.027,1.630,0.183,360.107,-73.486
-2.056,-1.958,1.175,10.986,385.681,0.854
-2.069,-1.722,0.722,19.531,399.353,77.576
-2.051,-1.377,0.282,24.597,400.146,146.484
-1.998,-1.010,-0.119,30.029,390.625,202.759
-1.904,-0.655,-0.428,25.085,373.474,243.652
-1.848,-0.318,-0.592,13.000,350.342,268.127
-1.832,-0.052,-0.627,2.747,324.402,280.945
-1.849,0.090,-0.557,4.150,301.575,286.743
-1.921,0.168,-0.461,12.939,285.828,290.833
-2.016,0.136,-0.397,33.325,278.320,299.377
-2.148,0.104,-0.356,55.359,278.687,317.444
-2.422,0.067,-0.448,77.698,287.598,349.609
-2.638,0.099,-0.621,101.257,303.833,397.644
-2.854,0.266,-0.932,122.070,320.496,459.839
-3.014,0.685,-1.536,129.883,330.078,529.175
-3.041,1.381,-2.028,125.000,321.716,593.811
-3.157,2.093,-2.685,133.911,281.250,638.184
-2.714,2.874,-3.194,137.390,213.806,660.156
-2.196,3.411,-3.190,157.776,121.521,655.579
-2.097,3.909,-2.867,185.364,2.441,619.934
-2.118,4.000,-2.367,195.557,-124.390,557.678
-2.171,4.000,-1.655,183.105,-228.699,474.426
-2.015,4.000,-1.044,144.470,-295.898,378.662
-1.846,4.000,-0.467,112.671,-326.355,276.184
-1.657,4.000,0.010,104.675,-327.759,178.223
-1.485,3.825,0.356,109.253,-309.937,93.567
-1.365,3.538,0.556,121.460,-281.128,25.269
-1.287,3.251,0.612,136.719,-247.559,-27.710
-1.271,3.018,0.552,146.851,-215.088,-71.228
-1.253,2.788,0.433,150.269,-188.354,-108.215
-1.195,2.558,0.301,150.696,-171.814,-141.296
-1.090,2.355,0.172,149.048,-165.344,-170.471
-0.936,2.220,0.041,146.545,-168.335,-194.641
-0.779,2.152,-0.034,144.897,-179.749,-215.881
-0.585,2.150,-0.013,142.944,-197.388,-237.305
-0.463,2.173,0.109,135.132,-217.102,-261.414
-0.476,2.220,0.308,114.990,-232.178,-292.969
-0.500,2.217,0.574,80.322,-240.906,-334.045
-0.659,2.200,0.892,36.926,-246.033,-383.606
-0.972,2.138,1.254,6.104,-250.427,-438.660
-1.448,2.030,1.634,0.488,-255.737,-497.314
-2.013,1.782,2.012,24.048,-255.798,-559.082
-2.585,1.514,2.288,76.538,-244.995,-617.737
-3.101,1.144,2.330,151.184,-219.727,-666.504
-3.288,0.921,2.134,225.403,-181.030,-704.346
-3.421,0.308,1.680,291.138,-138.733,-730.042
-3.500,-0.372,1.307,330.688,-102.905,-741.089
-3.381,-1.372,1.064,336.426,-74.768,-734.070
-2.884,-2.180,1.030,269.958,-47.729,-703.064
-2.413,-2.624,1.051,173.828,-24.109,-638.000
-1.618,-2.649,1.133,85.510,-6.226,-543.396
-1.293,-2.532,1.110,50.110,4.089,-434.387
-1.059,-2.238,1.049,36.072,9.155,-331.482
-0.817,-1.926,0.908,38.757,9.155,-247.009
-0.633,-1.700,0.755,54.138,4.517,-184.082
-0.449,-1.534,0.611,69.946,-2.991,-136.780
-0.337,-1.412,0.460,76.355,-11.902,-93.750
-0.250,-1.199,0.423,65.063,-23.376,-50.842
-0.003,-0.947,0.486,46.631,-36.377,-10.925
0.035,-0.675,0.556,34.241,-51.453,23.560
0.029,-0.447,0.689,28.687,-67.810,50.293
0.103,-0.189,0.891,30.945,-81.970,67.383
0.139,-0.048,1.021,48.035,-88.684,79.712
0.185,0.121,1.123,53.345,-87.646,85.266
0.272,0.208,1.199,54.077,-79.529,85.876
0.305,0.282,1.249,48.157,-66.589,83.557
0.340,0.347,1.272,36.377,-49.316,78.369
0.378,0.373,1.251,26.550,-31.067,72.510
0.389,0.395,1.189,17.395,-13.245,67.322
0.374,0.420,1.085,7.385,3.174,62.988
0.410,0.435,0.965,-6.714,17.090,59.326
0.446,0.477,0.867,-25.452,26.245,55.542
0.472,0.547,0.817,-42.847,30.334,49.744
0.481,0.583,0.791,-49.622,28.809,41.870
0.486,0.594,0.789,-45.654,24.292,32.959
0.492,0.574,0.789,-32.104,18.005,23.621
0.500,0.540,0.797,-14.404,10.803,15.015
0.501,0.497,0.810,3.235,3.418,7.812
0.487,0.428,0.819,21.851,-3.479,3.479
0.470,0.399,0.826,34.119,-9.155,1.465
0.441,0.381,0.825,43.213,-13.428,0.610
0.417,0.362,0.817,49.561,-16.052,1.221
0.399,0.333,0.817,49.622,-16.846,1.831
0.388,0.312,0.825,44.067,-16.785,1.526
0.392,0.300,0.846,34.119,-15.564,1.099
0.381,0.295,0.866,21.912,-12.634,0.244
0.369,0.271,0.893,12.268,-9.216,-0.854
0.369,0.230,0.921,4.578,-6.592,-1.526
0.367,0.189,0.940,-0.732,-4.150,-1.099
0.365,0.176,0.929,-2.441,-1.038,1.282
0.377,0.208,0.892,-2.136,2.686,5.981
0.390,0.246,0.864,-0.916,4.883,11.414
0.390,0.288,0.849,-1.343,5.005,15.137
0.398,0.312,0.848,-0.793,3.296,17.090
0.402,0.329,0.857,1.282,1.343,17.883
0.382,0.334,0.843,6.165,-0.427,17.761
0.376,0.341,0.809,9.155,-1.038,16.785
0.397,0.370,0.781,5.859,-1.892,15.137
0.421,0.381,0.782,1.099,-3.601,12.634
0.438,0.359,0.795,-3.418,-5.249,9.216
0.437,0.364,0.811,-8.118,-6.653,5.615

0.618,0.653,1.828,-20.752,-80.078,9.399
0.566,0.739,2.022,-11.780,-77.576,6.836
0.471,0.791,2.194,-5.493,-72.205,-0.244
0.383,0.812,2.359,-4.639,-62.500,-11.475
0.290,0.841,2.523,-9.277,-47.729,-27.161
0.172,0.826,2.681,-16.846,-27.527,-45.166
0.010,0.779,2.819,-28.625,-1.221,-65.552
-0.142,0.695,2.894,-42.847,30.884,-87.524
-0.297,0.606,2.885,-56.946,67.261,-109.680
-0.462,0.493,2.823,-68.298,105.530,-130.066
-0.643,0.349,2.712,-69.641,142.090,-145.569
-0.824,0.134,2.590,-55.847,173.584,-154.114
-1.046,-0.089,2.428,-33.569,199.707,-155.396
-1.282,-0.330,2.212,-7.446,221.008,-150.696
-1.494,-0.678,2.010,18.860,236.511,-140.747
-1.673,-1.085,1.851,30.212,246.582,-126.648
-1.796,-1.492,1.726,23.682,256.897,-105.469
-1.880,-1.782,1.637,5.920,272.827,-72.571
-1.937,-1.963,1.492,-5.676,295.715,-23.071
-1.896,-2.000,1.230,-3.235,323.242,43.091
-1.898,-1.834,0.901,-3.296,350.403,117.676
-1.952,-1.434,0.562,-14.160,371.521,189.880
-1.998,-0.932,0.247,-28.687,386.230,249.878
-2.039,-0.462,-0.021,-36.072,395.203,294.800
-2.056,-0.114,-0.223,-38.269,396.912,324.707
-2.118,0.110,-0.342,-42.114,392.090,340.515
-2.226,0.210,-0.405,-43.884,382.996,346.863
-2.245,0.293,-0.438,-40.100,373.596,349.182
-2.234,0.315,-0.476,-18.372,367.493,353.333
-2.294,0.334,-0.565,19.043,362.732,364.990
-2.372,0.482,-0.837,63.232,356.689,387.695
-2.494,0.770,-1.198,107.239,346.558,422.485
-2.526,1.060,-1.626,151.550,322.083,462.830
-2.361,1.427,-1.954,174.744,282.410,497.498
-2.151,1.885,-2.254,183.411,231.750,521.057
-1.949,2.295,-2.343,183.105,170.532,527.832
-1.883,2.537,-2.202,168.945,96.497,515.564
-1.870,2.682,-1.874,139.343,16.296,487.000
-1.842,2.762,-1.391,109.009,-54.504,449.219
-1.812,2.770,-0.909,95.032,-105.225,410.889
-1.842,2.800,-0.571,87.891,-133.972,374.573
-1.738,2.917,-0.353,79.590,-143.188,341.675
-1.566,3.099,-0.226,73.181,-139.771,310.608
-1.453,3.325,-0.219,74.402,-133.484,278.442
-1.346,3.493,-0.245,84.473,-130.920,241.699
-1.284,3.562,-0.248,93.445,-133.667,195.618
-1.265,3.592,-0.282,92.896,-138.977,139.648
-1.181,3.584,-0.350,94.360,-144.226,79.163
-1.034,3.533,-0.435,106.201,-153.259,14.832
-0.983,3.406,-0.511,127.197,-175.110,-53.833
-0.965,3.159,-0.439,147.461,-209.900,-125.122
-0.956,2.902,-0.237,147.217,-248.657,-191.528
-0.974,2.641,0.028,138.306,-279.907,-246.399
-1.046,2.390,0.279,136.841,-294.800,-290.222
-1.122,2.128,0.446,139.099,-292.847,-327.576
-1.115,1.880,0.571,136.475,-279.785,-360.962
-1.086,1.667,0.698,128.296,-265.259,-390.930
-1.090,1.475,0.893,121.460,-255.127,-418.335
-1.109,1.320,1.184,115.479,-247.375,-442.932
-1.152,1.248,1.503,106.079,-235.535,-464.966
-1.238,1.228,1.745,94.910,-213.562,-486.328
-1.419,1.291,1.824,85.815,-183.411,-508.972
-1.669,1.366,1.737,86.243,-152.649,-536.011
-2.067,1.349,1.503,99.060,-128.540,-568.542
-2.231,1.427,1.239,108.032,-114.075,-607.849
-2.634,1.237,1.063,140.015,-109.558,-647.583
-3.058,0.772,0.897,163.757,-110.229,-685.486
-3.266,0.366,0.946,147.705,-113.708,-716.492
-3.324,-0.259,1.047,112.854,-115.845,-732.117
-3.298,-1.083,1.182,98.145,-108.643,-726.318
-2.944,-2.037,1.258,89.294,-87.463,-696.655
-2.300,-2.800,1.204,78.369,-60.974,-634.155
-1.645,-3.084,1.130,59.998,-41.382,-539.001
-1.075,-3.245,0.983,85.632,-33.386,-416.992
-0.759,-2.974,0.812,103.455,-36.072,-289.307
-0.625,-2.540,0.700,102.478,-47.363,-172.607
-0.611,-2.059,0.656,81.726,-58.533,-74.646
-0.484,-1.553,0.667,39.063,-62.378,1.038
-0.306,-1.099,0.663,-5.798,-60.120,58.289
-0.157,-0.618,0.689,-44.128,-57.007,99.792
-0.051,-0.184,0.759,-64.697,-55.847,125.000
0.056,0.168,0.830,-62.561,-59.021,136.047
0.161,0.479,0.923,-46.265,-66.895,136.169
0.202,0.711,1.001,-18.616,-77.515,125.610
0.211,0.858,1.101,10.193,-86.853,105.652
0.236,0.874,1.212,35.339,-91.614,79.956
0.292,0.781,1.316,54.810,-88.257,53.406
0.356,0.643,1.369,68.115,-75.562,30.701
0.398,0.513,1.338,76.721,-55.542,15.686
0.395,0.375,1.226,82.275,-31.982,9.766
0.382,0.292,1.076,72.266,-8.606,10.864
0.392,0.278,0.941,40.894,11.108,15.137
0.407,0.325,0.859,-0.854,26.245,19.348
0.434,0.415,0.839,-37.537,34.546,22.217
0.445,0.479,0.854,-55.969,36.011,21.790
0.444,0.510,0.874,-58.167,33.203,17.822
0.431,0.514,0.877,-45.654,28.992,11.292
0.419,0.477,0.844,-21.667,23.926,5.005
0.427,0.414,0.794,5.432,17.700,1.038
0.432,0.367,0.755,26.672,10.315,0.061
0.434,0.330,0.750,38.574,2.625,1.038
0.413,0.318,0.758,42.969,-3.479,3.662
0.391,0.331,0.777,40.100,-6.409,6.165
0.383,0.343,0.785,33.325,-7.263,8.301
0.377,0.348,0.795,24.292,-7.019,9.827
0.383,0.352,0.818,12.634,-6.287,10.864
0.385,0.359,0.857,2.808,-5.432,11.597
0.385,0.345,0.885,-1.526,-3.845,11.780
0.398,0.324,0.894,-2.258,-1.282,11.230
0.401,0.320,0.889,-1.709,1.099,10.315
0.417,0.341,0.870,2.380,2.258,10.132
0.413,0.362,0.850,9.644,1.831,10.620
0.409,0.386,0.841,13.855,0.122,10.620
0.411,0.409,0.847,16.907,-2.808,9.827
0.413,0.405,0.854,20.691,-5.493,8.545
0.412,0.427,0.841,23.315,-7.385,7.080
0.403,0.476,0.823,22.888,-8.423,5.310
0.411,0.466,0.818,24.353,-9.216,3.052
0.401,0.438,0.838,21.423,-10.010,-0.793

0.510,0.560,1.802,-40.894,-70.557,13.977
0.467,0.641,2.013,-43.335,-68.420,12.817
0.402,0.678,2.209,-40.710,-59.692,8.179
0.320,0.721,2.396,-44.128,-45.776,-0.061
0.213,0.739,2.562,-53.772,-24.658,-12.390
0.085,0.706,2.664,-61.035,0.854,-29.114
-0.049,0.649,2.702,-64.270,30.273,-47.424
-0.209,0.574,2.703,-64.331,60.791,-65.308
-0.346,0.477,2.646,-61.890,90.393,-80.688
-0.477,0.355,2.564,-58.044,119.019,-93.445
-0.604,0.224,2.466,-55.176,145.142,-103.577
-0.718,0.090,2.336,-53.711,169.189,-111.877
-0.838,-0.018,2.177,-48.401,191.223,-117.188
-0.984,-0.108,1.978,-31.616,209.961,-118.164
-1.115,-0.313,1.740,1.892,226.440,-112.244
-1.228,-0.557,1.487,39.001,237.671,-101.135
-1.320,-0.827,1.280,62.378,243.713,-85.327
-1.407,-1.073,1.116,67.383,247.070,-63.843
-1.536,-1.262,0.978,51.270,254.761,-35.645
-1.667,-1.383,0.830,21.851,268.921,-0.122
-1.718,-1.412,0.668,-7.507,288.147,44.556
-1.715,-1.349,0.490,-28.076,308.960,97.900
-1.742,-1.217,0.349,-42.358,325.989,154.175
-1.782,-0.916,0.264,-58.777,338.562,208.008
-1.858,-0.557,0.189,-58.838,347.290,254.150
-2.010,-0.241,0.081,-41.748,355.835,290.527
-2.174,0.055,-0.116,-23.682,362.427,317.505
-2.188,0.245,-0.414,-3.235,366.943,337.646
-2.141,0.389,-0.702,13.611,365.601,354.126
-2.179,0.578,-1.007,23.865,354.126,369.446
-2.230,0.666,-1.328,40.283,335.754,389.954
-2.178,0.770,-1.504,52.246,309.998,416.138
-2.165,0.852,-1.629,71.594,274.841,447.266
-2.165,1.068,-1.765,95.398,233.459,484.253
-2.149,1.359,-1.868,116.943,190.247,519.897
-2.176,1.821,-2.038,128.296,144.836,547.119
-1.957,2.410,-2.158,136.902,96.497,563.965
-1.699,2.920,-2.084,156.372,35.889,563.843
-1.662,3.259,-1.893,161.011,-43.701,539.307
-1.819,3.549,-1.532,139.893,-129.150,492.798
-1.887,3.693,-0.917,109.802,-199.768,434.875
-1.821,3.794,-0.371,85.571,-244.690,371.155
-1.632,3.720,-0.038,90.332,-259.094,304.077
-1.416,3.572,0.189,112.305,-247.681,235.657
-1.239,3.392,0.278,126.648,-222.534,171.387
-1.161,3.197,0.265,138.245,-194.946,116.516
-1.087,3.052,0.209,150.879,-172.729,70.740
-1.030,2.958,0.145,162.598,-160.767,29.785
-0.973,2.895,0.093,171.753,-158.875,-10.376
-0.898,2.871,0.123,171.143,-166.504,-54.810
-0.860,2.807,0.201,170.593,-177.185,-102.539
-0.814,2.714,0.328,169.006,-183.716,-150.085
-0.778,2.607,0.439,158.691,-184.937,-195.923
-0.725,2.483,0.520,145.447,-181.335,-238.525
-0.654,2.378,0.569,128.967,-175.232,-278.442
-0.669,2.329,0.632,108.826,-169.373,-317.749
-0.739,2.186,0.711,97.290,-166.138,-357.666
-0.808,1.986,0.836,99.915,-164.429,-397.888
-0.912,1.708,0.997,113.831,-162.903,-436.707
-1.089,1.450,1.203,132.080,-158.813,-472.778
-1.260,1.194,1.406,161.682,-148.926,-505.737
-1.375,1.038,1.526,198.120,-131.714,-535.767
-1.542,0.928,1.552,226.868,-109.741,-564.026
-1.824,0.900,1.518,231.140,-85.693,-593.933
-2.233,0.758,1.405,223.999,-61.035,-626.038
-2.498,0.660,1.404,201.721,-35.278,-660.034
-2.857,0.159,1.294,173.401,-13.367,-688.232
-3.163,-0.375,1.261,111.450,3.662,-706.909
-3.118,-0.900,1.309,52.490,17.212,-710.999
-3.000,-1.487,1.277,18.616,30.029,-693.604
-2.651,-1.925,1.161,9.155,44.250,-648.499
-2.267,-2.093,0.957,14.954,54.932,-577.087
-1.679,-2.217,0.739,54.688,58.472,-485.046
-1.051,-2.266,0.437,96.313,50.049,-385.559
-0.582,-2.166,0.219,112.122,28.625,-292.358
-0.396,-1.960,0.180,104.858,-0.305,-210.815
-0.421,-1.646,0.303,67.139,-28.931,-141.296
-0.413,-1.318,0.485,22.888,-48.645,-82.947
-0.287,-1.006,0.613,-2.258,-56.091,-34.363
-0.193,-0.746,0.653,-8.301,-58.777,6.042
-0.104,-0.443,0.699,-12.634,-61.890,38.574
0.085,-0.255,0.762,-9.155,-68.420,63.660
0.188,-0.057,0.803,-2.808,-79.041,81.665
0.220,0.154,0.911,-0.427,-92.041,90.332
0.216,0.331,1.048,0.427,-103.271,91.431
0.237,0.475,1.179,0.427,-106.995,87.708
0.252,0.576,1.285,7.874,-100.586,79.773
0.310,0.605,1.353,26.855,-83.557,68.237
0.359,0.575,1.332,40.710,-60.486,54.688
0.386,0.551,1.234,44.189,-36.255,41.687
0.428,0.503,1.100,38.940,-14.709,32.288
0.444,0.458,0.974,26.917,0.732,25.757
0.450,0.458,0.898,8.545,9.094,21.118
0.443,0.460,0.873,-5.615,12.268,17.151
0.421,0.460,0.873,-16.418,12.268,11.536
0.402,0.441,0.889,-21.423,10.376,4.395
0.386,0.384,0.917,-18.005,8.667,-2.319
0.383,0.307,0.922,-8.179,7.324,-6.042
0.394,0.253,0.888,6.836,5.859,-6.409
0.415,0.213,0.839,25.024,3.662,-3.296
0.417,0.186,0.778,38.635,-0.061,1.892
0.400,0.214,0.715,42.053,-4.700,7.935
0.392,0.266,0.679,38.208,-9.399,12.512
0.396,0.309,0.682,28.320,-15.320,15.198
0.389,0.345,0.735,14.343,-21.423,14.160
0.384,0.372,0.808,2.380,-26.978,10.376
0.389,0.365,0.894,-2.319,-31.189,5.493
0.373,0.318,0.967,-1.648,-32.043,1.404
0.359,0.266,1.026,-0.366,-30.029,-1.648
0.361,0.227,1.058,2.441,-25.452,-1.892
0.364,0.226,1.055,5.676,-18.616,0.916
0.360,0.231,1.030,8.240,-10.681,5.005
0.349,0.239,0.992,7.019,-3.113,7.629
0.356,0.270,0.954,2.197,3.479,8.301
0.353,0.303,0.911,-2.502,8.057,8.118
0.364,0.321,0.876,-2.258,9.766,7.996
0.382,0.299,0.864,4.395,8.667,8.423
0.389,0.290,0.856,7.629,4.700,8.423
0.391,0.295,0.851,7.019,0.854,8.667

0.852,0.294,1.721,-27.527,-62.500,-1.709
0.837,0.408,1.923,-35.645,-61.768,-1.526
0.770,0.541,2.130,-43.762,-57.068,-3.357
0.675,0.657,2.349,-47.119,-47.546,-9.399
0.531,0.742,2.536,-43.396,-33.081,-20.691
0.361,0.721,2.685,-32.532,-14.832,-35.706
0.192,0.635,2.774,-21.179,6.104,-53.528
0.028,0.499,2.821,-12.817,29.419,-72.083
-0.161,0.358,2.852,-11.597,55.481,-89.355
-0.434,0.251,2.863,-11.902,85.571,-103.394
-0.738,0.084,2.847,-5.737,117.065,-114.563
-1.083,-0.086,2.767,2.502,147.339,-125.732
-1.358,-0.319,2.587,17.883,175.964,-135.620
-1.653,-0.662,2.354,33.569,205.444,-140.564
-2.004,-1.125,2.140,37.048,235.413,-138.855
-2.205,-1.572,1.953,24.658,266.846,-125.427
-2.273,-1.930,1.725,10.864,301.270,-92.224
-2.338,-2.163,1.425,4.822,333.984,-37.109
-2.330,-2.192,1.020,-0.305,359.680,32.959
-2.267,-2.026,0.605,-4.944,374.329,109.375
-2.235,-1.685,0.279,-14.038,376.282,181.519
-2.294,-1.227,0.039,-23.437,369.019,243.896
-2.388,-0.774,-0.140,-28.748,359.924,295.288
-2.469,-0.370,-0.257,-36.804,353.271,335.815
-2.494,-0.012,-0.336,-48.340,349.915,364.990
-2.499,0.259,-0.452,-54.321,350.586,386.047
-2.484,0.463,-0.568,-61.340,355.225,401.184
-2.484,0.614,-0.656,-70.374,360.901,411.316
-2.558,0.668,-0.724,-68.237,365.173,420.105
-2.664,0.699,-0.784,-54.749,369.019,434.082
-2.859,0.784,-0.919,-24.353,373.413,457.825
-3.018,1.029,-1.160,23.071,372.742,491.638
-2.981,1.349,-1.457,95.764,357.788,529.541
-2.973,1.735,-1.789,183.228,318.970,561.462
-2.936,2.183,-2.400,248.169,258.911,583.496
-2.528,2.619,-2.715,266.968,192.627,595.276
-2.190,3.049,-2.538,265.503,116.455,589.905
-2.219,3.231,-2.288,254.333,25.696,563.843
-2.253,3.382,-1.923,201.111,-66.345,518.555
-2.212,3.560,-1.388,124.878,-140.320,462.341
-2.112,3.683,-0.916,75.989,-188.965,404.236
-1.851,3.732,-0.561,81.421,-216.431,348.083
-1.585,3.768,-0.275,110.107,-231.018,289.368
-1.444,3.844,-0.063,124.634,-235.779,227.295
-1.364,3.907,0.095,124.146,-227.783,160.828
-1.323,3.947,0.180,116.333,-209.290,89.294
-1.337,3.846,0.171,110.107,-187.805,14.771
-1.416,3.660,0.067,106.934,-172.058,-59.204
-1.471,3.372,-0.077,111.206,-165.894,-128.418
-1.460,3.094,-0.170,115.906,-173.828,-190.613
-1.490,2.778,-0.166,126.953,-196.167,-244.873
-1.498,2.434,-0.065,143.005,-223.389,-289.124
-1.461,2.149,0.130,151.428,-245.972,-323.486
-1.434,1.952,0.349,148.560,-259.888,-348.755
-1.415,1.779,0.536,143.433,-263.184,-366.577
-1.352,1.632,0.688,138.611,-256.836,-381.653
-1.279,1.492,0.841,131.287,-246.826,-397.705
-1.199,1.335,1.031,121.704,-238.953,-416.321
-1.105,1.186,1.282,110.779,-234.009,-436.157
-1.090,1.068,1.535,106.079,-226.807,-456.238
-1.218,0.943,1.677,111.511,-210.693,-475.281
-1.308,0.994,1.776,105.042,-184.875,-496.277
-1.457,1.054,1.661,90.698,-157.410,-520.874
-1.783,0.752,1.370,107.422,-136.414,-545.532
-2.175,0.465,1.218,111.633,-128.662,-575.806
-2.581,0.147,1.202,66.223,-130.981,-609.436
-2.789,-0.219,1.274,25.330,-139.465,-639.587
-2.959,-0.800,1.328,22.339,-148.376,-655.579
-2.907,-1.365,1.426,12.939,-153.625,-650.208
-2.539,-1.765,1.546,1.465,-155.640,-616.821
-2.041,-1.959,1.612,7.629,-151.611,-556.641
-1.640,-1.985,1.607,43.762,-143.127,-480.042
-1.311,-2.000,1.496,99.243,-131.470,-397.095
-1.092,-1.903,1.371,140.259,-118.347,-318.298
-0.948,-1.745,1.279,147.705,-102.051,-249.695
-0.856,-1.604,1.171,127.747,-82.642,-190.247
-0.667,-1.438,1.116,85.510,-59.509,-138.794
-0.412,-1.265,1.062,39.917,-36.011,-93.201
-0.233,-1.083,0.963,6.104,-17.334,-51.941
-0.124,-0.831,0.908,-15.503,-6.531,-17.212
0.006,-0.583,0.861,-19.287,-2.197,12.329
0.148,-0.301,0.786,-11.047,-1.099,39.551
0.240,-0.045,0.687,5.127,-4.028,63.171
0.300,0.187,0.626,18.677,-9.766,80.017
0.339,0.403,0.598,25.635,-16.541,88.257
0.383,0.607,0.588,31.982,-22.156,89.600
0.426,0.720,0.591,43.213,-25.757,85.327
0.444,0.788,0.608,49.744,-27.954,74.829
0.449,0.822,0.627,48.767,-29.724,60.486
0.475,0.814,0.665,43.396,-31.738,46.143
0.473,0.782,0.734,33.203,-34.363,33.569
0.471,0.761,0.834,18.738,-36.499,23.071
0.472,0.733,0.932,8.057,-36.499,14.893
0.456,0.701,1.022,2.808,-32.532,8.118
0.437,0.635,1.077,0.854,-24.231,1.709
0.424,0.546,1.078,1.770,-12.573,-2.991
0.435,0.448,1.025,3.113,-0.671,-4.822
0.432,0.384,0.930,5.432,8.911,-3.479
0.420,0.389,0.817,6.958,15.198,1.282
0.415,0.435,0.706,10.071,16.296,7.812
0.402,0.486,0.612,14.038,11.841,12.634
0.392,0.547,0.544,16.113,3.479,14.893
0.388,0.593,0.535,15.015,-5.737,14.587
0.387,0.621,0.604,11.780,-15.991,11.597
0.388,0.618,0.713,8.118,-26.001,5.615
0.376,0.570,0.846,7.263,-31.982,-1.282
0.366,0.510,0.943,9.888,-32.166,-6.775
0.365,0.464,0.975,16.663,-27.954,-9.705
0.381,0.419,0.976,26.611,-21.545,-9.460
0.389,0.363,0.966,33.936,-15.686,-8.301
0.374,0.321,0.961,34.363,-11.292,-7.202
0.349,0.290,0.959,31.921,-7.019,-4.700
0.337,0.266,0.925,30.029,-2.747,-0.977
0.347,0.292,0.864,25.574,1.770,4.822
0.364,0.337,0.824,18.555,4.700,10.071
0.349,0.376,0.805,9.521,4.761,12.329
0.370,0.428,0.791,-0.244,3.967,12.146
0.394,0.471,0.782,-6.592,3.784,11.169
0.403,0.530,0.770,-7.141,2.380,8.667

0.682,0.723,1.435,-61.340,-47.302,-2.747
0.710,0.794,1.571,-59.326,-49.622,-7.812
0.726,0.771,1.683,-42.053,-48.401,-12.329
0.764,0.744,1.758,-32.532,-44.922,-19.287
0.804,0.732,1.808,-30.701,-42.358,-27.771
0.785,0.710,1.859,-29.114,-40.466,-36.316
0.704,0.707,1.952,-27.710,-39.001,-45.349
0.540,0.718,2.078,-22.827,-37.170,-55.542
0.317,0.688,2.238,-17.395,-30.884,-68.237
0.052,0.623,2.420,-20.996,-17.517,-84.595
-0.187,0.510,2.598,-32.837,3.784,-103.699
-0.462,0.381,2.723,-48.157,33.752,-124.268
-0.753,0.179,2.751,-54.688,70.251,-141.785
-1.042,-0.081,2.666,-49.500,110.046,-154.053
-1.333,-0.403,2.479,-38.269,149.658,-158.386
-1.578,-0.809,2.276,-33.752,188.171,-153.992
-1.812,-1.211,2.112,-45.410,224.182,-141.418
-1.963,-1.563,1.971,-64.026,256.409,-121.094
-2.031,-1.772,1.774,-76.172,285.461,-90.820
-2.054,-1.891,1.454,-61.707,307.617,-49.133
-2.022,-1.917,1.063,-33.813,319.153,1.343
-1.916,-1.769,0.728,-19.531,318.237,55.359
-1.825,-1.449,0.509,-20.142,309.448,109.009
-1.823,-1.072,0.384,-21.240,298.889,158.691
-1.893,-0.700,0.249,-26.978,294.617,201.294
-1.908,-0.381,0.094,-44.678,301.147,234.558
-1.839,-0.124,-0.054,-75.867,315.430,257.385
-1.786,0.105,-0.156,-109.131,331.177,269.775
-1.793,0.283,-0.205,-130.432,344.971,274.475
-1.783,0.388,-0.241,-130.920,356.873,276.306
-1.809,0.419,-0.278,-110.168,367.493,279.114
-1.870,0.449,-0.325,-79.712,377.563,287.048
-2.003,0.485,-0.412,-37.537,387.817,304.199
-2.248,0.555,-0.794,12.756,396.790,333.313
-2.424,0.798,-1.521,46.448,405.396,374.817
-2.450,1.324,-2.113,57.007,408.691,423.279
-2.172,1.488,-2.541,92.102,389.954,470.520
-1.843,2.097,-2.873,98.572,342.834,493.835
-1.312,2.422,-3.124,130.981,267.700,494.873
-1.167,2.712,-3.198,139.465,162.842,472.290
-1.193,2.897,-2.814,114.258,45.288,426.941
-1.192,2.898,-2.102,101.990,-61.279,377.808
-1.212,2.819,-1.384,106.995,-144.287,334.045
-1.286,2.674,-0.812,125.488,-198.059,295.959
-1.342,2.595,-0.363,145.874,-225.220,261.841
-1.361,2.601,-0.089,164.917,-228.027,230.957
-1.298,2.502,-0.027,188.599,-207.092,203.064
-1.197,2.400,-0.057,198.486,-173.462,176.697
-1.150,2.347,-0.120,182.129,-143.555,154.175
-1.082,2.340,-0.132,150.818,-127.502,139.343
-0.908,2.552,-0.043,106.873,-123.840,132.568
-0.752,2.928,0.043,83.862,-126.099,130.066
-0.633,3.349,0.110,98.877,-132.263,117.859
-0.626,3.661,0.175,129.822,-147.461,79.529
-0.641,3.734,0.292,157.410,-166.870,13.611
-0.649,3.596,0.444,169.434,-181.458,-70.984
-0.668,3.342,0.539,164.734,-183.105,-161.865
-0.664,3.000,0.560,157.776,-171.448,-246.033
-0.701,2.618,0.517,153.625,-155.762,-316.895
-0.724,2.239,0.443,149.292,-145.325,-373.047
-0.713,1.912,0.389,149.475,-142.700,-415.588
-0.728,1.620,0.353,157.166,-145.508,-447.876
-0.760,1.367,0.379,169.556,-150.208,-472.351
-0.787,1.156,0.563,175.232,-157.349,-491.882
-0.908,1.002,0.894,160.400,-165.405,-510.193
-1.294,0.805,1.243,123.108,-168.762,-531.616
-1.585,0.925,1.580,66.589,-161.072,-559.143
-1.903,0.955,1.852,35.522,-143.982,-588.135
-2.330,0.803,1.859,57.068,-123.901,-615.784
-2.642,0.477,1.813,89.233,-104.126,-642.822
-2.799,0.123,1.794,99.426,-83.984,-664.001
-2.937,-0.284,1.717,90.759,-62.500,-673.462
-2.673,-0.537,1.650,85.999,-38.147,-666.016
-2.408,-0.982,1.428,110.779,-14.587,-638.916
-2.206,-1.397,1.136,136.536,7.874,-593.079
-1.890,-1.690,0.849,128.418,26.489,-533.630
-1.423,-1.793,0.672,90.332,33.691,-465.210
-0.964,-1.918,0.553,58.105,28.076,-389.465
-0.648,-1.973,0.475,35.400,16.602,-310.852
-0.429,-1.802,0.508,2.808,4.395,-236.633
-0.313,-1.562,0.530,-16.541,-7.080,-169.067
-0.243,-1.329,0.527,-18.127,-18.677,-112.122
-0.101,-1.052,0.541,-13.550,-28.625,-67.566
0.033,-0.845,0.494,1.648,-38.452,-30.090
0.138,-0.572,0.501,5.554,-51.575,-1.221
0.170,-0.324,0.580,5.981,-68.237,20.569
0.173,-0.113,0.720,10.010,-85.571,37.476
0.219,0.032,0.859,18.005,-99.976,51.208
0.254,0.178,0.962,19.775,-107.117,61.523
0.292,0.311,1.069,14.648,-105.225,67.322
0.334,0.436,1.184,7.690,-96.375,67.261
0.367,0.508,1.258,5.249,-82.764,60.181
0.380,0.519,1.264,9.216,-65.552,48.340
0.426,0.477,1.213,17.761,-45.959,34.729
0.477,0.374,1.106,26.245,-27.283,22.339
0.501,0.286,1.006,31.128,-12.329,13.916
0.495,0.232,0.930,30.640,-4.333,10.193
0.485,0.202,0.862,28.015,-1.465,10.254
0.469,0.203,0.823,23.071,-0.793,13.062
0.440,0.247,0.803,14.282,-1.587,16.663
0.416,0.309,0.792,5.371,-3.296,19.958
0.406,0.344,0.794,-0.671,-5.676,22.278
0.410,0.396,0.814,-7.751,-9.155,22.339
0.428,0.410,0.844,-10.498,-12.939,20.508
0.420,0.409,0.868,-7.263,-15.930,16.479
0.414,0.375,0.882,-0.549,-17.700,11.475
0.422,0.336,0.884,7.019,-18.982,7.019
0.420,0.284,0.897,13.062,-20.264,3.723
0.404,0.235,0.924,16.418,-20.752,1.282
0.390,0.204,0.945,18.921,-20.081,0.488
0.385,0.188,0.949,23.315,-17.334,2.380
0.401,0.180,0.914,28.015,-12.878,6.226
0.424,0.189,0.870,27.405,-8.850,10.132
0.432,0.209,0.848,20.752,-6.836,13.062
0.425,0.234,0.835,11.780,-5.859,15.198
0.415,0.265,0.822,3.967,-5.066,16.907
0.409,0.293,0.816,-1.526,-4.456,18.188
0.422,0.318,0.831,-5.127,-4.639,18.066
0.395,0.313,0.853,-5.310,-6.104,16.113

0.497,0.588,1.506,-38.879,-58.044,-9.460
0.532,0.638,1.529,-39.307,-58.350,-10.376
0.589,0.686,1.599,-38.757,-60.425,-11.353
0.601,0.728,1.713,-35.156,-63.049,-14.099
0.566,0.745,1.841,-35.034,-63.721,-20.203
0.538,0.722,1.983,-38.330,-60.486,-29.297
0.505,0.705,2.110,-41.748,-53.467,-40.771
0.396,0.679,2.209,-42.053,-44.250,-53.406
0.212,0.640,2.270,-40.771,-32.593,-66.406
-0.001,0.566,2.313,-35.461,-18.616,-79.346
-0.210,0.433,2.344,-26.367,-3.845,-91.675
-0.397,0.278,2.371,-20.508,13.000,-103.088
-0.569,0.144,2.390,-20.508,32.776,-113.159
-0.733,0.004,2.420,-21.790,55.420,-121.277
-0.916,-0.135,2.438,-25.696,81.421,-126.587
-1.121,-0.272,2.423,-29.663,110.840,-128.906
-1.334,-0.471,2.381,-27.283,142.151,-129.211
-1.553,-0.696,2.285,-27.222,176.270,-127.563
-1.735,-0.924,2.152,-34.180,213.013,-122.070
-1.854,-1.145,1.993,-40.466,249.146,-109.070
-1.912,-1.336,1.765,-35.950,281.250,-87.158
-1.929,-1.484,1.463,-16.785,306.824,-55.664
-1.932,-1.574,1.139,2.502,324.402,-15.808
-1.919,-1.548,0.847,8.728,333.801,29.663
-1.895,-1.408,0.610,3.601,337.830,78.857
-1.879,-1.213,0.438,-2.319,338.867,127.869
-1.928,-1.004,0.348,-8.545,339.294,173.340
-2.026,-0.768,0.304,-17.273,341.858,213.806
-2.119,-0.532,0.240,-22.034,350.220,248.535
-2.233,-0.282,0.124,-26.550,364.441,278.381
-2.307,-0.058,-0.156,-28.687,381.653,304.749
-2.265,0.121,-0.565,-26.855,397.156,328.674
-2.156,0.346,-0.918,-32.776,404.419,350.891
-2.104,0.480,-1.167,-36.987,398.560,371.399
-2.085,0.592,-1.291,-40.527,382.141,391.418
-2.088,0.691,-1.301,-41.321,361.023,410.095
-2.093,0.764,-1.273,-25.146,338.135,431.213
-2.166,0.820,-1.317,-1.099,317.322,459.167
-2.396,1.084,-1.580,21.179,301.575,492.798
-2.447,1.605,-2.002,46.631,290.283,527.771
-2.215,2.261,-2.503,92.712,268.005,553.589
-1.837,2.841,-2.854,147.400,217.468,557.617
-1.582,3.292,-3.040,187.744,130.554,533.325
-1.472,3.616,-2.935,190.063,16.968,480.347
-1.413,3.740,-2.435,168.945,-97.290,406.982
-1.494,3.683,-1.783,146.179,-192.322,329.285
-1.602,3.479,-1.182,129.395,-257.202,259.888
-1.667,3.235,-0.669,117.676,-292.175,202.271
-1.608,3.007,-0.237,108.337,-304.321,157.471
-1.398,2.862,0.162,100.281,-300.171,127.686
-1.167,2.870,0.499,101.074,-282.166,110.046
-1.054,2.946,0.709,120.667,-250.916,96.130
-1.003,3.136,0.741,140.015,-208.374,77.881
-0.877,3.351,0.625,151.489,-163.391,49.988
-0.713,3.510,0.436,152.588,-129.333,8.728
-0.617,3.550,0.232,149.475,-113.647,-46.448
-0.557,3.489,0.053,144.958,-115.295,-112.488
-0.471,3.319,-0.079,139.038,-128.174,-184.387
-0.498,3.102,-0.129,128.418,-146.912,-258.179
-0.574,2.825,-0.077,118.103,-168.945,-327.759
-0.670,2.523,0.072,114.075,-192.505,-389.771
-0.835,2.199,0.298,119.202,-215.515,-443.237
-1.092,1.880,0.619,127.991,-233.337,-487.122
-1.388,1.536,0.947,143.127,-242.432,-521.790
-1.620,1.274,1.213,163.391,-237.000,-547.974
-1.741,1.121,1.355,187.622,-217.102,-565.186
-1.889,1.045,1.326,207.275,-190.369,-577.026
-2.061,1.103,1.262,202.209,-164.185,-591.248
-2.190,1.018,1.127,180.664,-144.348,-614.624
-2.482,0.742,0.995,170.288,-133.545,-641.235
-2.774,0.203,0.968,155.029,-128.723,-666.138
-3.044,-0.309,1.097,92.346,-124.207,-683.716
-3.114,-0.780,1.350,-10.559,-118.835,-686.646
-2.786,-1.188,1.625,-97.839,-112.854,-667.908
-2.611,-1.638,1.798,-127.686,-103.516,-623.962
-2.391,-1.930,1.912,-132.935,-88.623,-561.096
-2.018,-2.106,1.940,-89.905,-69.702,-480.286
-1.551,-2.314,1.754,1.587,-49.316,-384.155
-1.112,-2.363,1.401,88.989,-29.053,-280.029
-0.827,-2.169,1.034,120.239,-13.733,-176.575
-0.651,-1.789,0.805,96.130,-6.409,-83.984
-0.419,-1.344,0.695,50.964,-5.432,-8.423
-0.283,-0.907,0.629,1.221,-9.216,47.913
-0.104,-0.342,0.698,-48.340,-17.334,83.191
-0.058,0.107,0.788,-62.500,-27.649,100.464
0.078,0.421,0.879,-41.138,-37.537,103.821
0.141,0.562,0.881,-0.122,-46.570,96.924
0.170,0.665,0.918,26.062,-53.894,79.834
0.212,0.705,1.016,43.030,-57.312,58.716
0.276,0.676,1.099,55.603,-54.626,39.490
0.326,0.618,1.135,61.462,-44.739,23.804
0.351,0.533,1.087,61.096,-29.236,12.329
0.361,0.439,0.994,52.429,-10.742,7.324
0.387,0.404,0.893,28.625,6.165,8.362
0.453,0.421,0.823,-0.488,18.555,12.939
0.490,0.453,0.788,-19.531,23.682,17.395
0.478,0.478,0.771,-24.780,23.376,19.043
0.454,0.493,0.744,-19.531,20.691,17.151
0.418,0.464,0.705,-7.751,16.785,13.489
0.397,0.427,0.689,4.578,12.024,8.850
0.400,0.366,0.693,17.029,5.859,5.249
0.396,0.325,0.724,25.879,-0.977,3.784
0.368,0.302,0.744,33.203,-5.371,5.127
0.339,0.345,0.713,34.973,-6.836,8.850
0.336,0.385,0.684,31.250,-6.348,13.550
0.350,0.422,0.670,19.592,-6.714,16.968
0.371,0.444,0.704,5.493,-10.193,17.395
0.363,0.455,0.761,-4.211,-15.503,15.442
0.361,0.445,0.826,-6.348,-19.348,12.756
0.356,0.409,0.862,-1.587,-20.020,10.498
0.363,0.356,0.868,5.371,-17.761,8.911
0.369,0.297,0.870,10.437,-14.648,8.667
0.382,0.290,0.871,11.536,-12.573,10.742
0.402,0.335,0.871,14.404,-11.353,14.709
0.396,0.375,0.865,24.658,-11.169,19.775
0.394,0.419,0.843,34.973,-10.925,23.804
0.380,0.453,0.778,37.842,-9.888,25.940
0.388,0.524,0.747,30.090,-8.911,26.550
0.403,0.581,0.739,18.616,-8.911,25.513

0.626,0.515,1.623,-18.677,-74.097,10.132
0.587,0.541,1.784,-18.066,-75.439,5.188
0.545,0.559,1.958,-22.705,-74.341,-1.526
0.495,0.576,2.146,-26.672,-71.655,-9.399
0.399,0.571,2.331,-27.588,-68.237,-19.897
0.286,0.561,2.515,-28.198,-63.416,-31.982
0.166,0.517,2.709,-31.799,-53.955,-44.678
0.001,0.464,2.872,-42.175,-38.147,-58.960
-0.207,0.426,2.976,-58.411,-13.977,-74.280
-0.454,0.376,3.034,-69.214,17.273,-88.074
-0.714,0.275,3.127,-71.533,54.199,-99.976
-0.987,0.080,3.145,-60.425,97.168,-107.544
-1.280,-0.112,3.044,-48.950,146.484,-110.657
-1.542,-0.315,2.856,-38.635,198.364,-110.840
-1.763,-0.558,2.606,-24.292,245.789,-106.506
-1.997,-0.832,2.302,-7.629,286.926,-98.877
-2.170,-1.175,1.980,8.728,319.580,-88.623
-2.266,-1.555,1.660,15.564,343.689,-72.632
-2.303,-1.834,1.350,7.996,361.389,-44.983
-2.292,-1.966,1.031,-0.977,372.498,-3.906
-2.221,-1.887,0.771,-3.479,377.319,50.232
-2.189,-1.710,0.453,2.014,375.549,112.732
-2.089,-1.484,0.147,15.259,367.981,177.002
-2.105,-1.159,0.043,25.574,354.614,238.403
-2.245,-0.770,0.009,18.311,342.407,289.368
-2.381,-0.453,-0.071,5.432,339.294,331.116
-2.459,-0.209,-0.150,-13.611,346.619,364.319
-2.479,0.008,-0.229,-45.837,361.267,387.939
-2.516,0.216,-0.293,-75.500,376.831,405.457
-2.608,0.354,-0.321,-89.905,392.700,419.495
-2.766,0.456,-0.342,-96.252,410.828,430.359
-3.012,0.557,-0.464,-91.980,433.350,441.895
-3.188,0.712,-0.682,-64.270,461.426,462.097
-3.443,1.014,-1.115,0.671,484.863,494.385
-3.529,1.427,-1.607,99.548,489.990,537.048
-3.404,1.928,-2.120,204.834,465.576,578.674
-3.275,2.453,-2.672,283.630,409.485,606.445
-2.728,2.798,-2.896,316.162,330.200,614.441
-2.320,3.011,-2.923,307.190,226.807,596.985
-2.268,3.160,-2.738,255.798,105.835,549.805
-2.259,3.163,-2.269,190.613,-13.916,483.582
-2.208,3.041,-1.647,145.081,-112.427,415.894
-2.159,2.954,-1.127,121.765,-180.725,360.413
-2.083,2.928,-0.737,115.784,-219.604,318.237
-1.964,2.958,-0.388,117.737,-233.765,281.921
-1.865,3.023,-0.115,120.728,-233.398,245.728
-1.825,3.080,0.070,120.972,-223.450,205.261
-1.786,3.195,0.147,119.995,-207.153,159.546
-1.673,3.249,0.161,134.521,-184.631,111.145
-1.559,3.123,0.102,167.358,-160.583,56.763
-1.544,2.986,-0.077,184.082,-143.799,-3.906
-1.512,2.824,-0.260,187.256,-140.137,-64.636
-1.370,2.707,-0.347,178.406,-152.710,-121.704
-1.220,2.691,-0.285,158.936,-177.307,-170.105
-1.250,2.727,-0.169,144.592,-205.688,-212.036
-1.296,2.721,-0.037,139.160,-227.539,-256.165
-1.334,2.633,0.095,128.479,-239.014,-308.838
-1.385,2.448,0.226,108.276,-243.591,-367.004
-1.431,2.237,0.408,86.426,-245.911,-422.424
-1.514,2.039,0.595,76.233,-247.986,-470.337
-1.672,1.873,0.753,87.341,-248.657,-509.766
-1.836,1.678,0.895,119.019,-246.216,-544.983
-2.054,1.444,1.060,156.067,-241.516,-580.750
-2.370,1.213,1.210,180.542,-233.887,-618.958
-2.701,0.882,1.308,190.369,-220.703,-656.982
-2.944,0.573,1.426,173.279,-201.660,-691.833
-2.971,0.289,1.465,137.451,-183.289,-716.125
-3.146,0.195,1.506,113.098,-170.288,-722.778
-3.367,-0.241,1.490,107.544,-164.246,-716.980
-3.193,-0.401,1.639,75.806,-160.889,-706.116
-2.954,-0.673,1.723,63.843,-158.264,-686.401
-2.681,-0.900,1.771,78.979,-147.583,-656.738
-2.417,-1.107,1.703,114.563,-127.380,-619.019
-2.120,-1.349,1.518,158.203,-101.379,-574.707
-1.803,-1.738,1.270,198.059,-75.256,-528.442
-1.536,-2.132,1.084,207.947,-51.880,-482.117
-1.380,-2.486,0.993,175.110,-33.997,-428.284
-1.062,-2.641,1.020,113.220,-20.020,-362.549
-0.726,-2.705,0.997,63.416,-8.484,-279.297
-0.519,-2.470,0.976,17.029,-0.732,-184.082
-0.326,-2.129,0.942,-6.348,3.662,-89.600
-0.182,-1.797,0.874,-9.277,4.395,-4.211
-0.088,-1.372,0.800,-21.240,1.953,64.514
0.035,-0.880,0.783,-40.710,-3.174,114.075
0.166,-0.444,0.780,-45.166,-11.292,145.935
0.240,-0.077,0.802,-32.898,-23.010,162.720
0.257,0.241,0.836,-11.353,-35.645,167.419
0.277,0.485,0.894,10.803,-45.105,162.781
0.294,0.644,0.921,27.649,-49.133,150.330
0.323,0.747,0.947,32.593,-47.974,132.141
0.374,0.812,0.974,28.076,-42.114,110.779
0.432,0.811,0.981,19.714,-33.447,88.989
0.473,0.765,0.984,9.705,-24.536,69.275
0.502,0.709,1.000,-0.183,-16.663,52.734
0.513,0.637,1.001,-0.977,-11.414,41.016
0.514,0.587,0.985,7.080,-9.094,34.302
0.504,0.558,0.971,19.714,-8.301,31.067
0.483,0.524,0.947,33.325,-7.080,29.175
0.471,0.488,0.913,42.542,-5.920,26.978
0.458,0.456,0.890,45.654,-4.822,24.475
0.451,0.457,0.869,42.236,-3.601,22.400
0.451,0.461,0.849,35.767,-0.671,21.057
0.456,0.442,0.828,28.992,3.479,19.775
0.452,0.431,0.804,18.860,7.324,18.372
0.447,0.431,0.773,9.705,10.193,16.357
0.420,0.407,0.735,9.766,10.803,14.343
0.424,0.374,0.691,15.686,8.606,12.390
0.436,0.339,0.657,23.010,3.296,11.536
0.448,0.321,0.646,27.893,-3.906,11.230
0.448,0.308,0.670,29.419,-10.742,11.841
0.427,0.309,0.716,25.879,-16.846,12.024
0.403,0.311,0.775,19.409,-20.508,11.658
0.382,0.318,0.824,12.085,-21.362,11.292
0.403,0.360,0.858,8.057,-19.897,11.780
0.394,0.377,0.869,11.169,-16.785,13.245
0.406,0.386,0.860,17.029,-15.137,14.343
0.421,0.376,0.848,23.621,-14.893,14.282
0.417,0.372,0.844,27.039,-15.869,12.634
0.401,0.367,0.834,29.297,-16.479,10.742

-0.015,0.053,2.518,-50.110,-46.021,-31.067
-0.094,0.034,2.598,-45.776,-25.757,-39.063
-0.190,-0.105,2.640,-29.175,-4.944,-42.114
-0.306,-0.215,2.660,-18.250,16.174,-42.603
-0.469,-0.324,2.698,-15.869,37.598,-41.809
-0.639,-0.419,2.724,-21.790,60.303,-40.161
-0.806,-0.468,2.703,-30.823,86.853,-38.940
-0.942,-0.547,2.632,-28.625,116.821,-37.048
-1.022,-0.658,2.506,-17.151,148.682,-31.433
-1.101,-0.731,2.349,-6.042,181.091,-19.531
-1.188,-0.808,2.178,2.075,210.571,-2.258
-1.307,-0.883,2.053,6.470,235.901,18.005
-1.492,-0.948,1.958,1.892,257.080,38.818
-1.710,-0.904,1.856,-9.766,278.015,58.777
-1.879,-0.877,1.706,-17.029,300.537,77.332
-1.996,-0.834,1.522,-20.264,324.280,94.971
-2.058,-0.826,1.334,-23.743,345.947,111.877
-2.085,-0.805,1.120,-23.804,363.281,129.883
-2.099,-0.760,0.874,-11.230,375.305,152.283
-2.126,-0.719,0.603,9.705,383.179,180.725
-2.189,-0.618,0.315,28.259,386.108,213.867
-2.295,-0.482,0.035,36.560,385.742,249.268
-2.388,-0.314,-0.200,30.334,384.033,285.828
-2.501,-0.111,-0.385,15.869,381.470,321.655
-2.573,-0.025,-0.590,3.601,379.211,356.384
-2.577,-0.038,-0.766,-17.700,377.380,387.573
-2.554,0.024,-0.849,-64.209,376.282,413.757
-2.503,0.174,-0.880,-117.676,377.441,433.411
-2.562,0.336,-0.971,-127.930,373.596,452.026
-2.722,0.575,-1.383,-82.520,361.633,477.234
-2.741,0.897,-1.920,-4.333,340.576,511.169
-2.656,1.347,-2.357,71.777,302.063,546.753
-2.592,1.758,-2.912,142.700,236.450,573.425
-2.332,2.304,-3.125,178.162,147.827,584.045
-2.054,2.532,-2.933,206.665,36.499,574.463
-2.080,2.745,-2.387,202.209,-88.440,543.701
-2.257,2.770,-1.562,183.716,-200.623,502.380
-2.460,2.796,-0.812,159.180,-273.376,459.717
-2.438,2.840,-0.201,134.827,-299.927,419.922
-2.253,2.831,0.280,124.756,-292.480,384.705
-2.139,2.846,0.563,119.934,-265.808,353.821
-2.039,2.984,0.564,115.723,-228.333,326.965
-1.861,3.167,0.426,127.319,-188.049,302.368
-1.643,3.300,0.270,153.687,-161.743,272.217
-1.446,3.478,0.222,171.265,-157.898,232.300
-1.213,3.691,0.308,174.683,-167.908,182.800
-1.044,3.956,0.448,172.485,-180.786,123.474
-0.974,4.000,0.556,176.575,-190.552,51.147
-0.998,4.000,0.603,189.636,-193.481,-34.119
-1.087,3.906,0.629,190.857,-188.782,-129.395
-1.134,3.642,0.676,172.424,-180.725,-227.112
-1.295,3.305,0.800,143.921,-173.767,-320.923
-1.443,2.935,0.996,116.272,-169.434,-403.625
-1.522,2.547,1.241,104.736,-164.734,-470.459
-1.596,2.146,1.539,108.582,-154.175,-522.461
-1.692,1.724,1.819,117.188,-135.498,-563.354
-1.781,1.317,2.031,128.174,-107.971,-594.421
-1.901,1.029,2.141,147.949,-70.740,-616.211
-2.059,0.781,2.111,175.781,-27.283,-629.089
-2.169,0.581,1.948,201.660,16.052,-635.559
-2.236,0.384,1.720,217.651,56.335,-637.756
-2.365,0.093,1.408,218.933,91.309,-638.550
-2.468,-0.057,1.123,190.918,120.422,-642.029
-2.605,-0.379,0.880,133.911,140.564,-647.217
-2.586,-0.519,0.748,41.992,145.447,-651.855
-2.680,-0.620,0.795,-38.940,134.888,-647.766
-2.677,-0.723,0.773,-82.336,114.075,-630.981
-2.571,-0.934,0.728,-74.890,84.961,-601.135
-2.192,-1.171,0.627,-48.767,54.199,-563.110
-1.659,-1.390,0.505,-10.864,22.827,-519.348
-1.197,-1.596,0.394,35.767,-8.728,-470.459
-0.866,-1.806,0.299,80.566,-39.551,-415.649
-0.703,-1.954,0.294,112.549,-66.589,-353.943
-0.477,-2.045,0.406,116.333,-86.670,-287.170
-0.383,-2.014,0.573,95.520,-98.877,-219.604
-0.314,-1.854,0.758,59.998,-101.563,-153.015
-0.145,-1.636,0.924,26.001,-94.543,-89.905
-0.038,-1.370,0.960,5.066,-81.543,-29.785
0.029,-1.079,0.966,-9.949,-67.261,22.827
0.121,-0.769,0.943,-22.461,-52.124,66.162
0.216,-0.432,0.891,-37.048,-39.001,98.206
0.275,-0.083,0.865,-50.964,-30.090,118.835
0.348,0.232,0.875,-53.528,-26.123,130.066
0.449,0.488,0.912,-44.495,-26.611,132.507
0.513,0.713,0.938,-29.419,-30.396,124.756
0.498,0.884,0.947,-8.301,-34.790,108.398
0.454,0.953,0.936,17.578,-37.964,84.778
0.464,0.942,0.911,37.537,-39.917,56.335
0.490,0.836,0.867,48.645,-40.710,27.710
0.486,0.687,0.844,49.683,-40.283,3.540
0.461,0.493,0.843,42.358,-39.185,-12.756
0.463,0.316,0.855,27.893,-37.842,-21.851
0.479,0.170,0.879,12.695,-35.278,-24.658
0.470,0.058,0.907,4.395,-31.372,-22.217
0.457,0.020,0.910,1.038,-26.794,-15.198
0.439,0.037,0.899,2.625,-22.888,-6.042
0.432,0.068,0.878,11.536,-20.935,2.747
0.427,0.123,0.846,19.653,-22.034,10.437
0.422,0.187,0.826,23.437,-25.330,15.747
0.434,0.246,0.840,24.231,-30.029,18.250
0.424,0.303,0.879,22.705,-34.424,17.090
0.422,0.321,0.922,20.447,-36.804,13.489
0.418,0.317,0.966,19.226,-36.560,9.155
0.429,0.309,1.007,14.954,-33.997,4.944
0.421,0.290,1.045,8.301,-30.090,1.831
0.414,0.267,1.074,-0.366,-24.170,-0.183
0.421,0.241,1.087,-7.141,-16.663,-1.526
0.427,0.219,1.066,-8.240,-7.996,-1.587
0.409,0.209,0.998,-2.625,-0.061,0.000
0.385,0.198,0.916,4.517,6.226,2.747
0.390,0.201,0.829,9.644,8.301,5.371
0.404,0.229,0.770,13.611,5.737,6.897
0.386,0.238,0.756,16.235,0.549,6.714
0.364,0.229,0.750,15.808,-4.944,4.700
0.376,0.209,0.751,13.489,-9.583,2.808
0.375,0.195,0.756,11.047,-12.817,1.953
0.392,0.195,0.774,6.165,-14.648,2.319
0.396,0.224,0.800,1.160,-16.846,3.174
0.398,0.259,0.835,-1.648,-19.287,2.869

0.418,0.253,2.210,-77.881,-102.661,60.364
0.252,0.457,2.354,-74.951,-93.933,60.242
0.075,0.533,2.474,-59.998,-79.773,53.162
-0.096,0.571,2.567,-45.776,-62.256,38.452
-0.231,0.494,2.629,-34.241,-41.931,17.578
-0.341,0.378,2.676,-27.161,-16.663,-6.348
-0.501,0.231,2.683,-26.184,13.672,-31.006
-0.671,0.025,2.635,-18.982,49.133,-52.307
-0.808,-0.260,2.517,-1.831,87.402,-66.406
-0.957,-0.514,2.370,7.690,124.329,-71.289
-1.153,-0.691,2.203,9.888,156.982,-66.772
-1.374,-0.856,2.013,17.456,185.120,-53.528
-1.547,-1.052,1.844,26.978,208.435,-33.630
-1.728,-1.228,1.684,30.212,230.042,-8.545
-1.917,-1.373,1.522,20.386,252.136,21.790
-2.052,-1.423,1.312,2.808,276.306,57.251
-2.072,-1.363,1.042,-11.169,299.561,98.328
-2.042,-1.231,0.693,-10.742,317.200,144.653
-2.008,-1.005,0.329,-4.028,325.806,193.481
-1.948,-0.718,0.044,0.488,323.608,240.356
-1.902,-0.422,-0.135,1.892,313.293,279.907
-1.951,-0.151,-0.217,-5.981,301.208,309.509
-2.053,0.063,-0.247,-25.452,294.495,327.393
-2.137,0.255,-0.348,-47.791,296.814,337.585
-2.110,0.359,-0.608,-57.861,305.847,346.558
-2.063,0.407,-0.912,-61.951,311.157,357.117
-1.995,0.418,-1.147,-63.843,301.086,369.690
-1.886,0.471,-1.257,-50.537,274.475,386.841
-1.908,0.546,-1.276,-9.766,237.183,411.560
-2.034,0.694,-1.324,51.025,193.054,442.749
-2.163,0.955,-1.503,111.511,147.583,477.966
-2.144,1.290,-1.567,160.828,102.966,512.085
-2.215,1.641,-1.511,187.988,50.354,535.583
